timestamp,accel_x,accel_y,accel_z,gyro_x,gyro_y,gyro_z,mag_x,mag_y,mag_z,smooth_accel_z,1.460851607,0.000000001,smooth_mag_x,smooth_mag_y,alpha,standard deviation,smooth_gyro_z
4.70527E+12,-1.0392914,1.8793793,8.739746,0,0,0,0,0,0,8.739746,10.5504258,4705.265207,0,0,0.05,0.520931008,0
4.70527E+12,-1.1896515,1.9681702,8.929367,-0.20135498,0.23478699,-0.21360779,0,0,0,8.74922705,10.5504258,4705.270242,0,0,BLANK,0.520931008,-0.21360779
4.70528E+12,-1.2612305,1.9304352,9.41069,-0.22703552,0.17553711,-0.19003296,0,0,0,8.782300198,10.5504258,4705.275278,0,0,BLANK,0.520931008,-0.212429049
4.70528E+12,-1.322586,1.8239899,9.995331,-0.24101257,0.10745239,-0.16567993,0,0,0,8.842951738,10.5504258,4705.280313,0,0,BLANK,0.520931008,-0.210091593
4.70529E+12,-1.4107513,1.7140198,10.620209,-0.23396301,0.03616333,-0.14207458,19.392395,6.4208984,-50.654602,8.931814601,10.5504258,4705.285348,19.392395,6.4208984,BLANK,0.520931008,-0.206690742
4.70529E+12,-1.3833618,1.6423798,11.2276,-0.20166016,-0.04034424,-0.11618042,19.392395,6.4208984,-50.654602,9.046603871,10.5504258,4705.290384,19.392395,6.4208984,BLANK,0.520931008,-0.202165226
4.7053E+12,-1.209137,1.6149902,11.588974,-0.13928223,-0.10798645,-0.08534241,19.392395,6.4208984,-50.654602,9.173722377,10.5504258,4705.295419,19.392395,6.4208984,BLANK,0.520931008,-0.196324085
4.7053E+12,-1.0046692,1.655365,11.582321,-0.055404663,-0.14978027,-0.053253174,19.392395,6.4208984,-50.654602,9.294152308,10.5504258,4705.300455,19.392395,6.4208984,BLANK,0.520931008,-0.18917054
4.70531E+12,-0.8788452,1.7333832,11.311905,0.043121338,-0.16062927,-0.022201538,19.522095,6.678772,-51.913452,9.395039943,10.5504258,4705.30549,19.39888,6.43379208,BLANK,0.520931008,-0.180822089
4.70531E+12,-0.8295288,1.8530426,10.973923,0.13877869,-0.13711548,0.002655029,19.522095,6.678772,-51.913452,9.473984096,10.5504258,4705.310525,19.40504075,6.446041076,BLANK,0.520931008,-0.171648233
4.70532E+12,-0.7411194,2.0161743,10.58963,0.21006775,-0.09069824,0.01927185,19.522095,6.678772,-51.913452,9.529766391,10.5504258,4705.315561,19.41089346,6.457677622,BLANK,0.520931008,-0.162102229
4.70532E+12,-0.6082916,2.1537933,10.2164,0.25735474,-0.027175903,0.03413391,19.522095,6.678772,-51.913452,9.564098071,10.5504258,4705.320596,19.41645354,6.468732341,BLANK,0.520931008,-0.152290422
4.70533E+12,-0.56085205,2.2372437,9.819687,0.27685547,0.049331665,0.047088623,19.638062,6.0943604,-49.97711,9.576877518,10.5504258,4705.325632,19.42753396,6.450013744,BLANK,0.520931008,-0.14232147
4.70533E+12,-0.6239166,2.330246,9.493698,0.27261353,0.12696838,0.055007935,19.638062,6.0943604,-49.97711,9.572718542,10.5504258,4705.330667,19.43806036,6.432231077,BLANK,0.520931008,-0.132455
4.70534E+12,-0.7113037,2.3342743,9.265778,0.25524902,0.19537354,0.057388306,19.638062,6.0943604,-49.97711,9.557371515,10.5504258,4705.335702,19.44806045,6.415337543,BLANK,0.520931008,-0.122962835
4.70534E+12,-0.6900177,2.3409576,8.992447,0.233078,0.24017334,0.05419922,19.638062,6.0943604,-49.97711,9.529125289,10.5504258,4705.340738,19.45756052,6.399288686,BLANK,0.520931008,-0.114104732
4.70535E+12,-0.6861725,2.3958282,8.748306,0.21884155,0.25430298,0.051712036,20.518494,5.937195,-50.561523,9.490084325,10.5504258,4705.345773,19.5106072,6.376184002,BLANK,0.520931008,-0.105813893
4.70535E+12,-0.6981201,2.4538116,8.4713745,0.210495,0.23852539,0.050323486,20.518494,5.937195,-50.561523,9.439148833,10.5504258,4705.350809,19.56100154,6.354234551,BLANK,0.520931008,-0.098007024
4.70536E+12,-0.77160645,2.4292297,8.153641,0.21313477,0.19407654,0.048294067,20.518494,5.937195,-50.561523,9.374873442,10.5504258,4705.355844,19.60887616,6.333382574,BLANK,0.520931008,-0.09069197
4.70536E+12,-0.8197174,2.4904633,7.794632,0.21939087,0.127182,0.045166016,20.518494,5.937195,-50.561523,9.29586137,10.5504258,4705.360879,19.65435705,6.313573195,BLANK,0.520931008,-0.083899071
4.70537E+12,-0.88557434,2.5144196,7.5152893,0.22692871,0.04449463,0.0438385,20.895386,5.9921265,-51.24359,9.206832766,10.5504258,4705.365915,19.7164085,6.29750086,BLANK,0.520931008,-0.077512192
4.70537E+12,-0.9069519,2.5999756,7.3792114,0.22857666,-0.04727173,0.047714233,20.895386,5.9921265,-51.24359,9.115451698,10.5504258,4705.37095,19.77535738,6.282232142,BLANK,0.520931008,-0.071250871
4.70538E+12,-0.94389343,2.6549377,7.2689056,0.22013855,-0.13380432,0.054626465,20.895386,5.9921265,-51.24359,9.023124393,10.5504258,4705.375986,19.83135881,6.26772686,BLANK,0.520931008,-0.064957004
4.70538E+12,-0.8948517,2.7442322,7.328171,0.19616699,-0.21907043,0.06588745,20.895386,5.9921265,-51.24359,8.938376723,10.5504258,4705.381021,19.88456017,6.253946842,BLANK,0.520931008,-0.058414781
4.70539E+12,-0.8430481,2.7594757,7.6235046,0.15708923,-0.28308105,0.08111572,19.360352,6.7581177,-50.24414,8.872633117,10.5504258,4705.386056,19.85834976,6.279155385,BLANK,0.520931008,-0.051438256
4.70539E+12,-0.7442932,2.8121033,7.8940125,0.10812378,-0.32965088,0.094192505,19.360352,6.7581177,-50.24414,8.823702086,10.5504258,4705.391092,19.83344987,6.303103501,BLANK,0.520931008,-0.044156718
4.7054E+12,-0.67674255,2.8379364,8.168396,0.0592041,-0.3640747,0.1081543,19.360352,6.7581177,-50.24414,8.790936782,10.5504258,4705.396127,19.80979498,6.325854211,BLANK,0.520931008,-0.036541167
4.7054E+12,-0.65200806,2.8126068,8.598846,0.018585205,-0.38417053,0.11567688,18.190002,5.0872803,-50.531006,8.781332243,10.5504258,4705.401163,19.72880533,6.263925515,BLANK,0.520931008,-0.028930265
4.70541E+12,-0.63442993,2.7051697,8.907166,-0.010742188,-0.39523315,0.12173462,18.190002,5.0872803,-50.531006,8.787623931,10.5504258,4705.406198,19.65186516,6.205093255,BLANK,0.520931008,-0.021397021
4.70541E+12,-0.52601624,2.6207123,9.101822,-0.03236389,-0.39227295,0.1257019,18.190002,5.0872803,-50.531006,8.803333834,10.5504258,4705.411233,19.578772,6.149202607,BLANK,0.520931008,-0.014042075
4.70542E+12,-0.37876892,2.6653748,9.140457,-0.04598999,-0.3713684,0.1335907,18.190002,5.0872803,-50.531006,8.820189992,10.5504258,4705.416269,19.5093335,6.096106491,BLANK,0.520931008,-0.006660436
4.70542E+12,-0.26315308,2.739441,9.14798,-0.05583191,-0.33035278,0.14312744,17.977905,4.446411,-50.74005,8.836579493,10.5504258,4705.421304,19.43276208,6.013621717,BLANK,0.520931008,0.000828958
4.70543E+12,-0.066711426,2.8613281,9.090851,-0.066604614,-0.27201843,0.15022278,17.977905,4.446411,-50.74005,8.849293068,10.5504258,4705.42634,19.36001922,5.935261181,BLANK,0.520931008,0.008298649
4.70543E+12,0.05886841,2.9611511,9.061707,-0.08239746,-0.20796204,0.15299988,17.977905,4.446411,-50.74005,8.859913765,10.5504258,4705.431375,19.29091351,5.860818672,BLANK,0.520931008,0.015533711
4.70544E+12,0.2548828,3.0224304,9.052124,-0.10151672,-0.14916992,0.14805603,17.977905,4.446411,-50.74005,8.869524277,10.5504258,4705.43641,19.22526309,5.790098288,BLANK,0.520931008,0.022159827
4.70544E+12,0.40423584,3.0382233,9.056976,-0.12388611,-0.09512329,0.13586426,19.08722,5.555725,-51.01013,8.878896863,10.5504258,4705.441446,19.21836093,5.778379624,BLANK,0.520931008,0.027845048
4.70545E+12,0.55659485,3.0677185,9.064514,-0.13505554,-0.06352234,0.117614746,19.08722,5.555725,-51.01013,8.88817772,10.5504258,4705.446481,19.21180389,5.767246893,BLANK,0.520931008,0.032333533
4.70545E+12,0.73117065,3.1360474,9.061813,-0.13395691,-0.0541687,0.09472656,19.08722,5.555725,-51.01013,8.896859484,10.5504258,4705.451517,19.20557469,5.756670798,BLANK,0.520931008,0.035453184
4.70546E+12,0.80326843,3.120163,9.026474,-0.12121582,-0.06460571,0.06437683,19.08722,5.555725,-51.01013,8.903340209,10.5504258,4705.456552,19.19965696,5.746623508,BLANK,0.520931008,0.036899367
4.70546E+12,0.820755,3.0730286,8.886795,-0.101745605,-0.08598328,0.029678345,19.070435,4.1412354,-50.801086,8.902512949,10.5504258,4705.461587,19.19319586,5.666354103,BLANK,0.520931008,0.036538316
4.70547E+12,0.79797363,3.052353,8.723465,-0.08073425,-0.11427307,-0.006256104,19.070435,4.1412354,-50.801086,8.893560552,10.5504258,4705.466623,19.18705782,5.590098168,BLANK,0.520931008,0.034398595
4.70547E+12,0.716629,2.9994354,8.611862,-0.05973816,-0.14755249,-0.045715332,19.070435,4.1412354,-50.801086,8.879475624,10.5504258,4705.471658,19.18122668,5.517655029,BLANK,0.520931008,0.030392898
4.70548E+12,0.61650085,2.9361572,8.479919,-0.05104065,-0.17152405,-0.08305359,19.070435,4.1412354,-50.801086,8.859497793,10.5504258,4705.476694,19.17568709,5.448834048,BLANK,0.520931008,0.024720574
4.70548E+12,0.49969482,2.8843231,8.456467,-0.05342102,-0.18746948,-0.11778259,19.007874,3.7597656,-50.74005,8.839346253,10.5504258,4705.481729,19.16729644,5.364380625,BLANK,0.520931008,0.017595416
4.70549E+12,0.46733093,2.8624725,8.575516,-0.06843567,-0.19488525,-0.14820862,19.007874,3.7597656,-50.74005,8.82615474,10.5504258,4705.486764,19.15932532,5.284149874,BLANK,0.520931008,0.009305214
4.70549E+12,0.47044373,2.8260803,8.722534,-0.09213257,-0.19056702,-0.17198181,19.007874,3.7597656,-50.74005,8.820973703,10.5504258,4705.4918,19.15175275,5.20793066,BLANK,0.520931008,0.000240863
4.7055E+12,0.4972992,2.7116394,8.822815,-0.12080383,-0.17045593,-0.18972778,19.007874,3.7597656,-50.74005,8.821065768,10.5504258,4705.496835,19.14455881,5.135522407,BLANK,0.520931008,-0.009257569
4.7055E+12,0.5164032,2.6366577,8.848236,-0.1503601,-0.13168335,-0.20240784,18.556213,5.407715,-50.886536,8.82242428,10.5504258,4705.501871,19.11514152,5.149132037,BLANK,0.520931008,-0.018915083
4.70551E+12,0.47373962,2.5932465,8.86557,-0.17874146,-0.08087158,-0.2111206,18.556213,5.407715,-50.886536,8.824581566,10.5504258,4705.506906,19.0871951,5.162061185,BLANK,0.520931008,-0.028525359
4.70551E+12,0.40116882,2.5640717,8.848679,-0.20489502,-0.018814087,-0.21705627,18.556213,5.407715,-50.886536,8.825786438,10.5504258,4705.511941,19.06064599,5.174343876,BLANK,0.520931008,-0.037951904
4.70552E+12,0.28829956,2.5197906,8.84581,-0.23008728,0.04963684,-0.21961975,18.556213,5.407715,-50.886536,8.826787616,10.5504258,4705.516977,19.03542434,5.186012432,BLANK,0.520931008,-0.047035297
4.70552E+12,0.18623352,2.4901886,8.87471,-0.25401306,0.117004395,-0.21777344,17.134094,6.100464,-51.64337,8.829183735,10.5504258,4705.522012,18.94035782,5.231735011,BLANK,0.520931008,-0.055572204
4.70553E+12,0.14480591,2.4735107,8.93837,-0.27700806,0.186203,-0.2066803,17.134094,6.100464,-51.64337,8.834643048,10.5504258,4705.527048,18.85004463,5.27517146,BLANK,0.520931008,-0.063127609
4.70553E+12,0.118927,2.3979187,9.013687,-0.2955017,0.24861145,-0.18713379,17.134094,6.100464,-51.64337,8.843595246,10.5504258,4705.532083,18.7642471,5.316436087,BLANK,0.520931008,-0.069327918
4.70554E+12,0.09379578,2.3681183,9.057907,-0.3032074,0.29603577,-0.16293335,17.134094,6.100464,-51.64337,8.854310833,10.5504258,4705.537118,18.68273945,5.355637483,BLANK,0.520931008,-0.074008189
4.70554E+12,0.12852478,2.4542084,9.138794,-0.30007935,0.32929993,-0.13748169,16.946411,6.163025,-51.745605,8.868534992,10.5504258,4705.542154,18.59592302,5.396006859,BLANK,0.520931008,-0.077181864
4.70555E+12,0.32237244,2.6209106,9.14856,-0.28320313,0.34518433,-0.11088562,16.946411,6.163025,-51.745605,8.882536242,10.5504258,4705.547189,18.51344742,5.434357766,BLANK,0.520931008,-0.078867052
4.70555E+12,0.5812988,2.8124084,9.11525,-0.25398254,0.33969116,-0.08494568,16.946411,6.163025,-51.745605,8.89417193,10.5504258,4705.552225,18.4350956,5.470791127,BLANK,0.520931008,-0.079170984
4.70556E+12,0.81851196,2.976181,8.939606,-0.21200562,0.31103516,-0.06297302,16.946411,6.163025,-51.745605,8.896443634,10.5504258,4705.55726,18.36066137,5.505402821,BLANK,0.520931008,-0.078361085
4.70556E+12,0.9199524,3.1425781,8.694595,-0.16427612,0.25854492,-0.054519653,18.395996,6.968689,-50.331116,8.886351202,10.5504258,4705.562295,18.3624281,5.57856713,BLANK,0.520931008,-0.077169014
4.70557E+12,0.8877716,3.1987915,8.577209,-0.1186676,0.19148254,-0.060928345,18.395996,6.968689,-50.331116,8.870894092,10.5504258,4705.567331,18.3641065,5.648073223,BLANK,0.520931008,-0.07635698
4.70557E+12,0.7687988,3.3012085,8.399231,-0.07911682,0.11326599,-0.07923889,18.395996,6.968689,-50.331116,8.847310937,10.5504258,4705.572366,18.36570097,5.714104012,BLANK,0.520931008,-0.076501076
4.70558E+12,0.66244507,3.3318481,8.288223,-0.050476074,0.03060913,-0.1000061,18.395996,6.968689,-50.331116,8.81935654,10.5504258,4705.577402,18.36721572,5.776833262,BLANK,0.520931008,-0.077676327
4.70558E+12,0.5652313,3.3082428,8.235687,-0.037612915,-0.04673767,-0.11769104,18.492126,6.6986084,-51.49536,8.790173063,10.5504258,4705.582437,18.37346124,5.822922019,BLANK,0.520931008,-0.079677063
4.70559E+12,0.3885193,3.2973022,8.329086,-0.037002563,-0.13150024,-0.13362122,18.492126,6.6986084,-51.49536,8.76711871,10.5504258,4705.587472,18.37939448,5.866706338,BLANK,0.520931008,-0.08237427
4.70559E+12,0.12496948,3.197174,8.396179,-0.053344727,-0.20445251,-0.14701843,18.492126,6.6986084,-51.49536,8.748571725,10.5504258,4705.592508,18.38503105,5.908301441,BLANK,0.520931008,-0.085606478
4.7056E+12,-0.12687683,3.0503235,8.694855,-0.0796814,-0.2687683,-0.1543274,18.492126,6.6986084,-51.49536,8.745885888,10.5504258,4705.597543,18.3903858,5.947816789,BLANK,0.520931008,-0.089042525
4.7056E+12,-0.3033905,2.976059,8.92868,-0.11579895,-0.31707764,-0.15196228,18.492126,6.678772,-51.57776,8.755025594,10.5504258,4705.602579,18.39547281,5.984364549,BLANK,0.520931008,-0.092188512
4.70561E+12,-0.31596375,2.949112,9.059967,-0.15808105,-0.34280396,-0.1375122,18.492126,6.678772,-51.57776,8.770272664,10.5504258,4705.607614,18.40030547,6.019084922,BLANK,0.520931008,-0.094454697
4.70561E+12,-0.18725586,2.9794312,9.284363,-0.19869995,-0.3478241,-0.11364746,18.492126,6.678772,-51.57776,8.795977181,10.5504258,4705.612649,18.4048965,6.052069276,BLANK,0.520931008,-0.095414335
4.70562E+12,0.028762817,3.053299,9.527451,-0.24923706,-0.33137512,-0.08163452,18.492126,6.678772,-51.57776,8.832550872,10.5504258,4705.617685,18.40925797,6.083404412,BLANK,0.520931008,-0.094725344
4.70562E+12,0.22982788,3.2201233,9.705368,-0.2985382,-0.29748535,-0.05317688,18.492126,6.678772,-51.57776,8.876191728,10.5504258,4705.62272,18.41340137,6.113172791,BLANK,0.520931008,-0.092647921
4.70563E+12,0.45700073,3.4045258,9.814377,-0.34754944,-0.25120544,-0.030548096,18.492126,6.678772,-51.57776,8.923100992,10.5504258,4705.627756,18.4173376,6.141452752,BLANK,0.520931008,-0.08954293
4.70563E+12,0.668808,3.4696045,9.92215,-0.3895111,-0.19673157,-0.018218994,18.492126,6.678772,-51.57776,8.973053442,10.5504258,4705.632791,18.42107702,6.168318714,BLANK,0.520931008,-0.085976733
4.70564E+12,0.8415375,3.5808868,10.033936,-0.42268372,-0.14178467,-0.019241333,19.856262,7.3623657,-51.24359,9.02609757,10.5504258,4705.637826,18.49283627,6.228021063,BLANK,0.520931008,-0.082639963
4.70564E+12,0.7928467,3.623169,10.090347,-0.4468689,-0.09738159,-0.032791138,19.856262,7.3623657,-51.24359,9.079310042,10.5504258,4705.642862,18.56100756,6.284738295,BLANK,0.520931008,-0.080147522
4.70565E+12,0.7591553,3.615448,10.074783,-0.4644165,-0.06121826,-0.061294556,19.856262,7.3623657,-51.24359,9.12908369,10.5504258,4705.647897,18.62577028,6.338619666,BLANK,0.520931008,-0.079204873
4.70565E+12,0.6404877,3.527771,10.149704,-0.47052002,-0.039108276,-0.09068298,19.856262,7.3623657,-51.24359,9.180114705,10.5504258,4705.652933,18.68729487,6.389806967,BLANK,0.520931008,-0.079778779
4.70566E+12,0.52612305,3.4278107,10.180145,-0.4654541,-0.031539917,-0.11985779,17.289734,6.5063477,-51.411438,9.23011622,10.5504258,4705.657968,18.61741682,6.395634004,BLANK,0.520931008,-0.081782729
4.70566E+12,0.34588623,3.320877,10.187576,-0.44909668,-0.04273987,-0.14608765,17.289734,6.5063477,-51.411438,9.277989209,10.5504258,4705.663003,18.55103268,6.401169689,BLANK,0.520931008,-0.084997975
4.70567E+12,0.13703918,3.2056274,10.144165,-0.42303467,-0.061035156,-0.16577148,17.289734,6.5063477,-51.411438,9.321297999,10.5504258,4705.668039,18.48796775,6.406428589,BLANK,0.520931008,-0.089036651
4.70567E+12,-0.014556885,3.1459808,10.013229,-0.39727783,-0.08227539,-0.17504883,17.289734,6.5063477,-51.411438,9.355894549,10.5504258,4705.673074,18.42805606,6.411424545,BLANK,0.520931008,-0.09333726
4.70568E+12,-0.11961365,3.1284943,10.017761,-0.3703308,-0.10227966,-0.17097473,17.304993,6.5063477,-51.379395,9.388987871,10.5504258,4705.67811,18.37190291,6.416170703,BLANK,0.520931008,-0.097219133
4.70568E+12,-0.16397095,3.1666412,10.032684,-0.34680176,-0.11810303,-0.15698242,17.304993,6.5063477,-51.379395,9.421172678,10.5504258,4705.683145,18.31855741,6.420679552,BLANK,0.520931008,-0.100207297
4.70569E+12,-0.072006226,3.1960602,10.02594,-0.32112122,-0.13070679,-0.13908386,17.304993,6.5063477,-51.379395,9.451411044,10.5504258,4705.68818,18.26787919,6.42496296,BLANK,0.520931008,-0.102151126
4.70569E+12,0.03302002,3.2402344,9.965363,-0.29244995,-0.138443,-0.11723328,17.304993,6.5063477,-51.379395,9.477108642,10.5504258,4705.693216,18.21973488,6.429032197,BLANK,0.520931008,-0.102905233
4.7057E+12,0.0973053,3.2376862,9.895142,-0.26055908,-0.14242554,-0.09625244,17.713928,6.6314697,-50.750732,9.498010309,10.5504258,4705.698251,18.19444454,6.439154072,BLANK,0.520931008,-0.102572594
4.7057E+12,0.18348694,3.2068787,9.819687,-0.22592163,-0.14186096,-0.07673645,17.713928,6.6314697,-50.750732,9.514094144,10.5504258,4705.703287,18.17041871,6.448769853,BLANK,0.520931008,-0.101280786
4.70571E+12,0.272583,3.198532,9.637421,-0.18536377,-0.13565063,-0.057266235,17.713928,6.6314697,-50.750732,9.520260487,10.5504258,4705.708322,18.14759418,6.457904846,BLANK,0.520931008,-0.099080059
4.70571E+12,0.37516785,3.2574768,9.406204,-0.14428711,-0.123062134,-0.039978027,17.713928,6.6314697,-50.750732,9.514557662,10.5504258,4705.713357,18.12591087,6.466583088,BLANK,0.520931008,-0.096124957
4.70572E+12,0.48336792,3.2697601,9.094681,-0.104385376,-0.10316467,-0.026062012,18.83545,8.395386,-50.907898,9.493563829,10.5504258,4705.718393,18.16138782,6.563023234,BLANK,0.520931008,-0.09262181
4.70572E+12,0.53201294,3.322586,8.825867,-0.068878174,-0.08180237,-0.014526367,18.83545,8.395386,-50.907898,9.460178988,10.5504258,4705.723428,18.19509093,6.654641372,BLANK,0.520931008,-0.088717038
4.70573E+12,0.5418701,3.3621063,8.620697,-0.04069519,-0.060806274,-0.005355835,18.83545,8.395386,-50.907898,9.418204888,10.5504258,4705.728464,18.22710889,6.741678604,BLANK,0.520931008,-0.084548978
4.70573E+12,0.5208893,3.381134,8.508133,-0.016494751,-0.039993286,0.001739502,18.83545,8.395386,-50.907898,9.372701294,10.5504258,4705.733499,18.25752594,6.824363974,BLANK,0.520931008,-0.080234554
4.70574E+12,0.48799133,3.3880463,8.464432,0.005065918,-0.02178955,0.007461548,18.739319,8.604431,-50.96283,9.327287829,10.5504258,4705.738534,18.28161559,6.913367325,BLANK,0.520931008,-0.075849749
4.70574E+12,0.4699707,3.4145508,8.374649,0.029190063,-0.01222229,0.010696411,18.739319,8.604431,-50.96283,9.279655888,10.5504258,4705.74357,18.30450076,6.997920509,BLANK,0.520931008,-0.071522441
4.70575E+12,0.55010986,3.5202637,8.212219,0.061798096,-0.015441895,0.012878418,18.739319,8.604431,-50.96283,9.226284043,10.5504258,4705.748605,18.32624168,7.078246033,BLANK,0.520931008,-0.067302398
4.70575E+12,0.69963074,3.658722,8.115845,0.104400635,-0.03337097,0.01689148,18.739319,8.604431,-50.96283,9.170762091,10.5504258,4705.753641,18.34689554,7.154555282,BLANK,0.520931008,-0.063092704
4.70576E+12,0.848053,3.756485,8.097458,0.15242004,-0.064575195,0.016799927,17.887878,9.924316,-51.322937,9.117096887,10.5504258,4705.758676,18.32394467,7.293043317,BLANK,0.520931008,-0.059098072
4.70576E+12,1.0136719,3.8368835,7.9806366,0.2078247,-0.1025238,0.008010864,17.887878,9.924316,-51.322937,9.060273872,10.5504258,4705.763711,18.30214133,7.424606952,BLANK,0.520931008,-0.055742625
4.70577E+12,1.2587891,3.9231262,7.7191772,0.26768494,-0.13256836,-0.007781982,17.887878,9.924316,-51.322937,8.993219039,10.5504258,4705.768747,18.28142817,7.549592404,BLANK,0.520931008,-0.053344593
4.70577E+12,1.4982758,3.993744,7.430588,0.32466125,-0.15238953,-0.028839111,17.887878,9.924316,-51.322937,8.915087487,10.5504258,4705.773782,18.26175066,7.668328584,BLANK,0.520931008,-0.052119319
4.70578E+12,1.6164398,4.080551,7.055893,0.37239075,-0.16842651,-0.059936523,17.289734,7.536316,-50.74005,8.822127762,10.5504258,4705.778818,18.21314982,7.661727955,BLANK,0.520931008,-0.052510179
4.70578E+12,1.6086273,4.12442,6.7445984,0.41220093,-0.18292236,-0.10391235,17.289734,7.536316,-50.74005,8.718251294,10.5504258,4705.783853,18.16697903,7.655457357,BLANK,0.520931008,-0.055080288
4.70579E+12,1.4972534,4.1529236,6.3927,0.43980408,-0.19277954,-0.15542603,17.289734,7.536316,-50.74005,8.60197373,10.5504258,4705.788888,18.12311678,7.649500289,BLANK,0.520931008,-0.060097575
4.70579E+12,1.4192047,4.1217346,6.120056,0.44995117,-0.1947174,-0.2106781,17.289734,7.536316,-50.74005,8.477877843,10.5504258,4705.793924,18.08144764,7.643841075,BLANK,0.520931008,-0.067626601
4.7058E+12,1.4315948,4.101074,6.1466827,0.43836975,-0.19277954,-0.25836182,17.411804,7.902527,-50.85907,8.361318086,10.5504258,4705.798959,18.04796546,7.656775371,BLANK,0.520931008,-0.077163362
4.7058E+12,1.4242401,4.038162,6.147049,0.4041748,-0.19145203,-0.2979126,17.411804,7.902527,-50.85907,8.250604632,10.5504258,4705.803995,18.01615739,7.669062952,BLANK,0.520931008,-0.088200824
4.70581E+12,1.333313,3.8829803,6.256653,0.35430908,-0.18334961,-0.33268738,17.411804,7.902527,-50.85907,8.15090705,10.5504258,4705.80903,17.98593972,7.680736155,BLANK,0.520931008,-0.100425152
4.70581E+12,1.2476501,3.7831879,6.265045,0.29486084,-0.15740967,-0.36106873,17.411804,7.902527,-50.85907,8.056613948,10.5504258,4705.814065,17.95723293,7.691825697,BLANK,0.520931008,-0.113457331
4.70582E+12,1.2619934,3.6760101,6.22435,0.23291016,-0.11845398,-0.3782196,17.875671,9.42688,-51.44348,7.96500075,10.5504258,4705.819101,17.95315484,7.778578412,BLANK,0.520931008,-0.126695444
4.70582E+12,1.159256,3.6437378,6.2103424,0.15853882,-0.0652771,-0.38789368,17.875671,9.42688,-51.44348,7.877267833,10.5504258,4705.824136,17.94928064,7.860993491,BLANK,0.520931008,-0.139755356
4.70583E+12,0.9007721,3.6240082,6.42749,0.08125305,-0.014511108,-0.38885498,17.875671,9.42688,-51.44348,7.804778941,10.5504258,4705.829172,17.94560016,7.939287817,BLANK,0.520931008,-0.152210337
4.70583E+12,0.5868225,3.5750732,6.8047333,-0.002349854,0.03186035,-0.38587952,17.875671,9.42688,-51.44348,7.754776659,10.5504258,4705.834207,17.9421037,8.013667426,BLANK,0.520931008,-0.163893796
4.70584E+12,0.354599,3.5772095,7.208786,-0.086639404,0.06768799,-0.37854004,17.462158,8.7387085,-51.57776,7.727477126,10.5504258,4705.839242,17.91810642,8.04991948,BLANK,0.520931008,-0.174626109
4.70584E+12,0.19578552,3.5421295,7.5160675,-0.16007996,0.097335815,-0.3667755,17.462158,8.7387085,-51.57776,7.716906645,10.5504258,4705.844278,17.895309,8.084358931,BLANK,0.520931008,-0.184233578
4.70585E+12,0.06513977,3.5131683,8.022461,-0.21365356,0.12095642,-0.3456726,17.462158,8.7387085,-51.57776,7.732184363,10.5504258,4705.849313,17.87365145,8.117076409,BLANK,0.520931008,-0.192305529
4.70585E+12,0.13195801,3.5213776,8.546661,-0.25650024,0.13552856,-0.31367493,17.503357,8.612061,-51.53656,7.772908194,10.5504258,4705.854349,17.85513673,8.141825639,BLANK,0.520931008,-0.198373999
4.70586E+12,0.41841125,3.5552979,9.04834,-0.27400208,0.12857056,-0.27973938,17.503357,8.612061,-51.53656,7.836679785,10.5504258,4705.859384,17.83754774,8.165337407,BLANK,0.520931008,-0.202442268
4.70586E+12,0.704895,3.6335602,9.279327,-0.26060486,0.11109924,-0.24659729,17.503357,8.612061,-51.53656,7.908812145,10.5504258,4705.86442,17.8208382,8.187673586,BLANK,0.520931008,-0.204650019
4.70587E+12,0.9036865,3.7467499,9.309326,-0.22076416,0.09275818,-0.22465515,17.503357,8.612061,-51.53656,7.978837838,10.5504258,4705.869455,17.80496414,8.208892957,BLANK,0.520931008,-0.205650276
4.70587E+12,0.9711609,3.8964233,9.138184,-0.16279602,0.07762146,-0.21600342,17.544556,8.132935,-51.150513,8.036805146,10.5504258,4705.87449,17.79194373,8.205095059,BLANK,0.520931008,-0.206167933
4.70588E+12,1.1462402,4.002899,8.845917,-0.101882935,0.06315613,-0.21833801,17.544556,8.132935,-51.150513,8.077260739,10.5504258,4705.879526,17.77957435,8.201487056,BLANK,0.520931008,-0.206776437
4.70588E+12,1.3724365,4.039154,8.735764,-0.04006958,0.04171753,-0.22817993,17.544556,8.132935,-51.150513,8.110185902,10.5504258,4705.884561,17.76782343,8.198059454,BLANK,0.520931008,-0.207846612
4.70589E+12,1.4666595,3.9923553,8.770645,0.003097534,0.018295288,-0.2434082,17.544556,8.132935,-51.150513,8.143208857,10.5504258,4705.889597,17.75666006,8.194803231,BLANK,0.520931008,-0.209624691
4.70589E+12,1.5136261,3.9378967,8.815704,0.032089233,0.001968384,-0.2692566,17.289734,7.8796387,-50.405884,8.176833614,10.5504258,4705.894632,17.73331376,8.179045004,BLANK,0.520931008,-0.212606286
4.7059E+12,1.3787537,3.84935,8.917664,0.047805786,-0.002563477,-0.29994202,17.289734,7.8796387,-50.405884,8.213875133,10.5504258,4705.899667,17.71113477,8.164074689,BLANK,0.520931008,-0.216973073
4.7059E+12,1.2299957,3.5648804,9.124527,0.055007935,0.003463745,-0.33459473,17.289734,7.8796387,-50.405884,8.259407727,10.5504258,4705.904703,17.69006473,8.14985289,BLANK,0.520931008,-0.222854156
4.70591E+12,1.0771484,3.3185577,9.257065,0.05647278,0.022842407,-0.36712646,17.289734,7.8796387,-50.405884,8.30929059,10.5504258,4705.909738,17.67004819,8.13634218,BLANK,0.520931008,-0.230067771
4.70591E+12,0.8597412,3.190155,9.278412,0.05531311,0.06309509,-0.39074707,16.972351,8.407593,-50.405884,8.357746661,10.5504258,4705.914774,17.63516333,8.149904721,BLANK,0.520931008,-0.238101736
4.70592E+12,0.62101746,3.1886444,9.248413,0.05455017,0.106933594,-0.39814758,16.972351,8.407593,-50.405884,8.402279978,10.5504258,4705.919809,17.60202272,8.162789135,BLANK,0.520931008,-0.246104028
4.70592E+12,0.349411,3.2350006,9.195557,0.052856445,0.15093994,-0.39401245,16.972351,8.407593,-50.405884,8.441943829,10.5504258,4705.924844,17.57053913,8.175029328,BLANK,0.520931008,-0.253499449
4.70593E+12,0.001800537,3.2235107,9.172058,0.04701233,0.1907196,-0.38233948,16.972351,8.407593,-50.405884,8.478449537,10.5504258,4705.92988,17.54062972,8.186657512,BLANK,0.520931008,-0.259941451
4.70593E+12,-0.60069275,3.1297913,9.025894,0.040985107,0.22084045,-0.36810303,16.148376,9.484863,-51.164246,8.505821761,10.5504258,4705.934915,17.47101704,8.251567786,BLANK,0.520931008,-0.26534953
4.70594E+12,-0.8307648,3.148529,9.0807495,0.03387451,0.24246216,-0.34677124,16.148376,9.484863,-51.164246,8.534568148,10.5504258,4705.939951,17.40488499,8.313232547,BLANK,0.520931008,-0.269420615
4.70594E+12,-0.5561676,3.2842255,9.496689,0.019378662,0.25222778,-0.30775452,16.148376,9.484863,-51.164246,8.58267419,10.5504258,4705.944986,17.34205954,8.37181407,BLANK,0.520931008,-0.271337311
4.70595E+12,-0.20236206,3.494522,9.93251,-9.92E-04,0.240448,-0.25793457,16.148376,9.484863,-51.164246,8.650165981,10.5504258,4705.950021,17.28237536,8.427466516,BLANK,0.520931008,-0.270667174
4.70596E+12,-0.011886597,3.6431274,10.134689,-0.020553589,0.21388245,-0.21081543,15.916443,9.25293,-52.75116,8.724392132,10.5504258,4705.955057,17.21407874,8.46873969,BLANK,0.520931008,-0.267674586
4.70596E+12,0.07417297,3.6459808,10.177948,-0.031295776,0.18704224,-0.17852783,15.916443,9.25293,-52.75116,8.797069925,10.5504258,4705.960092,17.14919696,8.507949206,BLANK,0.520931008,-0.263217249
4.70597E+12,0.13619995,3.5592957,10.264923,-0.035095215,0.15736389,-0.16226196,15.916443,9.25293,-52.75116,8.870462579,10.5504258,4705.965128,17.08755926,8.545198246,BLANK,0.520931008,-0.258169484
4.70597E+12,0.12931824,3.4902496,10.389725,-0.035232544,0.11331177,-0.15808105,15.916443,9.25293,-52.75116,8.9464257,10.5504258,4705.970163,17.02900344,8.580584833,BLANK,0.520931008,-0.253165062
4.70598E+12,0.11526489,3.4739532,10.61763,-0.030090332,0.047470093,-0.16035461,16.171265,9.124756,-52.25067,9.029985915,10.5504258,4705.975198,16.98611652,8.607793392,BLANK,0.520931008,-0.24852454
4.70598E+12,0.1298523,3.407318,10.994476,-0.022460938,-0.03630066,-0.16014099,16.171265,9.124756,-52.25067,9.128210419,10.5504258,4705.980234,16.94537395,8.633641522,BLANK,0.520931008,-0.244105362
4.70599E+12,0.1387024,3.2780457,11.513824,-0.012954712,-0.1328888,-0.15548706,16.171265,9.124756,-52.25067,9.247491098,10.5504258,4705.985269,16.9066685,8.658197246,BLANK,0.520931008,-0.239674447
4.70599E+12,0.13230896,3.1311035,12.069855,-1.07E-04,-0.22819519,-0.14828491,16.171265,9.124756,-52.25067,9.388609293,10.5504258,4705.990305,16.86989832,8.681525184,BLANK,0.520931008,-0.23510497
4.706E+12,0.12779236,2.975006,12.527466,0.016571045,-0.2992096,-0.13973999,16.668701,8.842468,-51.0849,9.545552129,10.5504258,4705.99534,16.85983846,8.689572324,BLANK,0.520931008,-0.230336721
4.706E+12,0.17788696,2.8632507,12.917282,0.036499023,-0.34057617,-0.12646484,16.668701,8.842468,-51.0849,9.714138622,10.5504258,4706.000375,16.85028158,8.697217108,BLANK,0.520931008,-0.225143127
4.70601E+12,0.26649475,2.8117065,13.233826,0.05239868,-0.3461151,-0.10722351,16.668701,8.842468,-51.0849,9.890122991,10.5504258,4706.005411,16.84120256,8.704479653,BLANK,0.520931008,-0.219247146
4.70601E+12,0.31729126,2.8841553,13.469955,0.063308716,-0.32408142,-0.08572388,16.668701,8.842468,-51.0849,10.06911459,10.5504258,4706.010446,16.83257748,8.71137907,BLANK,0.520931008,-0.212570983
4.70602E+12,0.4728241,3.0854797,13.742523,0.07463074,-0.28556824,-0.06468201,16.775513,8.7387085,-50.572205,10.25278501,10.5504258,4706.015482,16.82972425,8.712745542,BLANK,0.520931008,-0.205176534
4.70602E+12,0.63804626,3.2700043,13.993027,0.08743286,-0.23277283,-0.050964355,16.775513,8.7387085,-50.572205,10.43979711,10.5504258,4706.020517,16.82701369,8.71404369,BLANK,0.520931008,-0.197465925
4.70603E+12,0.505188,3.3533478,14.036316,0.10508728,-0.17150879,-0.04812622,16.775513,8.7387085,-50.572205,10.61962306,10.5504258,4706.025552,16.82443866,8.71527693,BLANK,0.520931008,-0.18999894
4.70603E+12,0.31498718,3.226654,13.804779,0.129776,-0.08528137,-0.057022095,16.775513,8.7387085,-50.572205,10.77888085,10.5504258,4706.030588,16.82199237,8.716448509,BLANK,0.520931008,-0.183350098
4.70604E+12,0.24006653,2.961441,13.371384,0.15188599,0.022628784,-0.06752014,16.85028,8.963013,-50.645447,10.90850601,10.5504258,4706.035623,16.82340676,8.728776733,BLANK,0.520931008,-0.1775586
4.70604E+12,0.02722168,2.671051,12.856995,0.15864563,0.15078735,-0.07122803,16.85028,8.963013,-50.645447,11.00593046,10.5504258,4706.040659,16.82475042,8.740488547,BLANK,0.520931008,-0.172242072
4.70605E+12,-0.2850647,2.3148956,12.529907,0.14128113,0.28883362,-0.06982422,16.85028,8.963013,-50.645447,11.08212929,10.5504258,4706.045694,16.8260269,8.751614769,BLANK,0.520931008,-0.167121179
4.70605E+12,-0.7176361,2.117096,12.213409,0.09635925,0.42697144,-0.06764221,16.85028,8.963013,-50.645447,11.13869327,10.5504258,4706.050729,16.82723955,8.762184681,BLANK,0.520931008,-0.162147231
4.70606E+12,-1.1852112,1.9928131,11.98407,0.036239624,0.5533447,-0.061203003,17.100525,9.872437,-50.58899,11.18096211,10.5504258,4706.055765,16.84090382,8.817697297,BLANK,0.520931008,-0.157100019
4.70606E+12,-1.6383972,1.9115448,11.954056,-0.044525146,0.6872101,-0.045455933,17.100525,9.872437,-50.58899,11.2196168,10.5504258,4706.0608,16.85388488,8.870434282,BLANK,0.520931008,-0.151517815
4.70607E+12,-1.9332275,2.0013733,12.141052,-0.12789917,0.7921295,-0.02394104,17.100525,9.872437,-50.58899,11.26568856,10.5504258,4706.065836,16.86621689,8.920534418,BLANK,0.520931008,-0.145138976
4.70607E+12,-2.1419678,2.1154022,12.431671,-0.20147705,0.865921,0.005950928,17.100525,9.872437,-50.58899,11.32398769,10.5504258,4706.070871,16.87793229,8.968129547,BLANK,0.520931008,-0.137584481
4.70608E+12,-2.321991,2.2743225,12.57132,-0.2539673,0.9079437,0.034500122,17.289734,10.627747,-50.405884,11.3863543,10.5504258,4706.075906,16.89852238,9.05111042,BLANK,0.520931008,-0.128980251
4.70608E+12,-2.5272522,2.2663116,12.498093,-0.28175354,0.92697144,0.06173706,17.289734,10.627747,-50.405884,11.44194124,10.5504258,4706.080942,16.91808296,9.129942249,BLANK,0.520931008,-0.119444385
4.70609E+12,-2.6927643,2.0661469,12.426865,-0.2879486,0.9220581,0.08605957,17.289734,10.627747,-50.405884,11.49118742,10.5504258,4706.085977,16.93666551,9.204832486,BLANK,0.520931008,-0.109169187
4.70609E+12,-2.7767944,1.9445038,12.489975,-0.27589417,0.882843,0.119903564,17.289734,10.105896,-50.743103,11.5411268,10.5504258,4706.091013,16.95431894,9.249885662,BLANK,0.520931008,-0.09771555
4.7061E+12,-2.8298645,1.8401794,12.56221,-0.2566986,0.8101349,0.15859985,17.289734,10.105896,-50.743103,11.59218096,10.5504258,4706.096048,16.97108969,9.292686179,BLANK,0.520931008,-0.08489978
4.7061E+12,-2.7524872,1.8757629,12.817184,-0.22763062,0.7119751,0.2038269,17.289734,10.105896,-50.743103,11.65343111,10.5504258,4706.101083,16.98702191,9.33334667,BLANK,0.520931008,-0.070463446
4.70611E+12,-2.5441284,1.8931732,13.19902,-0.18798828,0.597641,0.2566681,17.289734,10.105896,-50.743103,11.73071056,10.5504258,4706.106119,17.00215751,9.371974136,BLANK,0.520931008,-0.054106869
4.70611E+12,-2.2698822,1.848587,13.3233185,-0.1353302,0.4811554,0.31181335,18.530273,9.063721,-50.21057,11.81034096,10.5504258,4706.111154,17.07856328,9.356561479,BLANK,0.520931008,-0.035810858
4.70612E+12,-2.0371704,1.8889923,13.12796,-0.07040405,0.37983704,0.3646698,18.530273,9.063721,-50.21057,11.87622191,10.5504258,4706.11619,17.15114877,9.341919456,BLANK,0.520931008,-0.015786825
4.70612E+12,-1.7444,1.9833069,12.756638,0.008865356,0.28204346,0.41870117,18.530273,9.063721,-50.21057,11.92024271,10.5504258,4706.121225,17.22010498,9.328009533,BLANK,0.520931008,0.005937575
4.70613E+12,-1.3209229,2.0254364,12.45546,0.07946777,0.2056427,0.4644165,18.530273,9.063721,-50.21057,11.94700358,10.5504258,4706.12626,17.28561338,9.314795106,BLANK,0.520931008,0.028861521
4.70613E+12,-0.9002991,2.1871796,12.221756,0.1337738,0.13664246,0.50749207,19.694519,8.566284,-49.40033,11.9607412,10.5504258,4706.131296,17.40605866,9.277369551,BLANK,0.520931008,0.052793049
4.70614E+12,-0.54875183,2.4218292,12.078766,0.16592407,0.07783508,0.5416565,19.694519,8.566284,-49.40033,11.96664244,10.5504258,4706.136331,17.52048168,9.241815273,BLANK,0.520931008,0.077236221
4.70614E+12,-0.22789001,2.6308746,11.875778,0.17662048,0.036392212,0.5616455,19.694519,8.566284,-49.40033,11.96209922,10.5504258,4706.141367,17.62918355,9.20803871,BLANK,0.520931008,0.101456685
4.70615E+12,0.025466919,2.7588654,11.603409,0.16889954,0.014602661,0.5663452,19.694519,8.566284,-49.40033,11.94416471,10.5504258,4706.146402,17.73245032,9.175950974,BLANK,0.520931008,0.124701111
4.70615E+12,0.1929779,2.838852,11.337158,0.13757324,0.011795044,0.5520477,19.79065,9.054565,-49.876404,11.91381437,10.5504258,4706.151437,17.8353603,9.169881675,BLANK,0.520931008,0.14606844
4.70616E+12,0.31414795,2.8429108,11.242004,0.091430664,0.02178955,0.5225067,19.79065,9.054565,-49.876404,11.88022385,10.5504258,4706.156473,17.93312479,9.164115842,BLANK,0.520931008,0.164890353
4.70616E+12,0.3197174,2.7690582,11.165344,0.031951904,0.036376953,0.48382568,19.79065,9.054565,-49.876404,11.84447986,10.5504258,4706.161508,18.02600105,9.1586383,BLANK,0.520931008,0.18083712
4.70617E+12,0.2102356,2.649994,11.2057495,-0.03250122,0.048706055,0.43959045,19.79065,9.054565,-49.876404,11.81254334,10.5504258,4706.166544,18.1142335,9.153434635,BLANK,0.520931008,0.193774786
4.70617E+12,0.06286621,2.4519806,11.3155365,-0.09310913,0.058166504,0.3922882,19.865417,9.225464,-50.62561,11.787693,10.5504258,4706.171579,18.20179267,9.157036103,BLANK,0.520931008,0.203700457
4.70618E+12,-0.21183777,2.179657,11.537857,-0.14506531,0.06373596,0.3449402,19.865417,9.225464,-50.62561,11.7752012,10.5504258,4706.176614,18.28497389,9.160457498,BLANK,0.520931008,0.210762444
4.70618E+12,-0.52368164,1.9269409,11.723221,-0.18043518,0.06512451,0.29734802,19.865417,9.225464,-50.62561,11.77260219,10.5504258,4706.18165,18.36399604,9.163707823,BLANK,0.520931008,0.215091723
4.70619E+12,-0.8301239,1.662384,11.680237,-0.19030762,0.063705444,0.26411438,19.865417,9.225464,-50.62561,11.76798393,10.5504258,4706.186685,18.43906709,9.166795632,BLANK,0.520931008,0.217542856
4.70619E+12,-1.1725006,1.3956909,11.48465,-0.17489624,0.057907104,0.24694824,19.865417,9.082031,-50.907898,11.75381723,10.5504258,4706.191721,18.51038459,9.1625574,BLANK,0.520931008,0.219013125
4.7062E+12,-1.4066162,1.2044373,11.30278,-0.13761902,0.047073364,0.24502563,19.865417,9.082031,-50.907898,11.73126537,10.5504258,4706.196756,18.57813621,9.15853108,BLANK,0.520931008,0.22031375
4.7062E+12,-1.4745178,1.1087341,11.185501,-0.09013367,0.032348633,0.25953674,19.865417,9.082031,-50.907898,11.70397715,10.5504258,4706.201791,18.64250025,9.154706076,BLANK,0.520931008,0.2222749
4.70621E+12,-1.4617157,1.0319214,11.227005,-0.03767395,0.01109314,0.29058838,19.865417,9.082031,-50.907898,11.68012855,10.5504258,4706.206827,18.70364608,9.151072322,BLANK,0.520931008,0.225690574
4.70621E+12,-1.4484863,1.0240326,11.1489105,0.023117065,-0.014312744,0.33143616,19.429016,8.427429,-49.420166,11.65356764,10.5504258,4706.211862,18.73991458,9.114890156,BLANK,0.520931008,0.230977853
4.70622E+12,-1.4050293,1.0986481,10.728836,0.09303284,-0.03451538,0.37153625,19.429016,8.427429,-49.420166,11.60733106,10.5504258,4706.216898,18.77436965,9.080517098,BLANK,0.520931008,0.238005773
4.70622E+12,-1.1545715,1.2202759,10.137344,0.17224121,-0.049423218,0.41212463,19.429016,8.427429,-49.420166,11.53383171,10.5504258,4706.221933,18.80710197,9.047862693,BLANK,0.520931008,0.246711716
4.70623E+12,-0.9008179,1.4091034,9.504013,0.25135803,-0.063827515,0.45089722,19.429016,8.427429,-49.420166,11.43234077,10.5504258,4706.226968,18.83819767,9.016841009,BLANK,0.520931008,0.256920991
4.70623E+12,-0.69918823,1.6729584,8.821152,0.31651306,-0.08744812,0.4806366,20.173645,8.825684,-48.884583,11.30178133,10.5504258,4706.232004,18.90497004,9.007283158,BLANK,0.520931008,0.268106771
4.70624E+12,-0.34848022,1.8995056,8.128204,0.36746216,-0.11920166,0.4994812,20.173645,8.825684,-48.884583,11.14310247,10.5504258,4706.237039,18.96840379,8.9982032,BLANK,0.520931008,0.279675493
4.70624E+12,-0.07557678,2.0817413,7.5234222,0.3927002,-0.15156555,0.5055542,20.173645,8.825684,-48.884583,10.96211845,10.5504258,4706.242075,19.02866585,8.98957724,BLANK,0.520931008,0.290969428
4.70625E+12,0.28172302,2.3370667,7.0892944,0.39059448,-0.1862793,0.4948883,20.173645,8.825684,-48.884583,10.76847725,10.5504258,4706.24711,19.0859148,8.981382578,BLANK,0.520931008,0.301165372
4.70625E+12,0.639801,2.5385742,6.678299,0.3605652,-0.21990967,0.46687317,20.724487,9.25293,-49.064636,10.56396834,10.5504258,4706.252145,19.16784341,8.994959949,BLANK,0.520931008,0.309450762
4.70626E+12,0.82914734,2.6004944,6.3964233,0.2998352,-0.24386597,0.4188385,20.724487,9.25293,-49.064636,10.35559109,10.5504258,4706.257181,19.24567559,9.007858452,BLANK,0.520931008,0.314920149
4.70626E+12,0.74720764,2.6029816,6.270447,0.21636963,-0.24583435,0.3582611,20.724487,9.25293,-49.064636,10.15133388,10.5504258,4706.262216,19.31961616,9.020112029,BLANK,0.520931008,0.317087196
4.70627E+12,0.6226654,2.5180054,6.4059143,0.10038757,-0.22468567,0.27641296,20.724487,9.25293,-49.064636,9.964062903,10.5504258,4706.267252,19.3898597,9.031752928,BLANK,0.520931008,0.315053484
4.70627E+12,0.49461365,2.3992462,6.6858063,-0.0287323,-0.1885376,0.19055176,19.644165,8.174133,-50.115967,9.800150073,10.5504258,4706.272287,19.40257497,8.988871932,BLANK,0.520931008,0.308828398
4.70628E+12,0.36904907,2.1889038,7.033127,-0.15705872,-0.15026855,0.10974121,19.644165,8.174133,-50.115967,9.661798919,10.5504258,4706.277322,19.41465447,8.948134985,BLANK,0.520931008,0.298874039
4.70628E+12,0.17175293,1.9023132,7.2991486,-0.2722168,-0.111953735,0.032592773,19.644165,8.174133,-50.115967,9.543666403,10.5504258,4706.282358,19.42613,8.909434886,BLANK,0.520931008,0.285559975
4.70629E+12,-0.018035889,1.7184448,7.4240417,-0.36740112,-0.07572937,-0.03514099,19.644165,8.174133,-50.115967,9.437685168,10.5504258,4706.287393,19.43703175,8.872669791,BLANK,0.520931008,0.269524927
4.70629E+12,-0.2533722,1.4839935,7.7816772,-0.433609,-0.047409058,-0.08938599,19.541931,7.58667,-50.216675,9.35488477,10.5504258,4706.292429,19.44227671,8.808369802,BLANK,0.520931008,0.251579381
4.7063E+12,-0.48927307,1.3153381,8.027206,-0.48846436,-0.022140503,-0.13760376,19.541931,7.58667,-50.216675,9.288500831,10.5504258,4706.297464,19.44725942,8.747284812,BLANK,0.520931008,0.232120224
4.7063E+12,-0.6843109,1.0251007,8.561157,-0.51452637,-0.014282227,-0.17131042,19.541931,7.58667,-50.216675,9.25213364,10.5504258,4706.302499,19.451993,8.689254071,BLANK,0.520931008,0.211948692
4.70631E+12,-0.87939453,0.7629547,8.823883,-0.51582336,-0.02116394,-0.19378662,19.541931,7.58667,-50.216675,9.230721108,10.5504258,4706.307535,19.4564899,8.634124868,BLANK,0.520931008,0.191661926
4.70631E+12,-1.2121277,0.43397522,8.911926,-0.4861145,-0.036254883,-0.20613098,19.694519,7.536316,-50.07019,9.214781352,10.5504258,4706.31257,19.46839136,8.579234424,BLANK,0.520931008,0.171772281
4.70632E+12,-1.6613159,0.1315155,8.781006,-0.4861145,-0.036254883,-0.20613098,19.694519,7.536316,-50.07019,9.193092585,10.5504258,4706.317606,19.47969774,8.527088503,BLANK,0.520931008,0.152877118
4.70632E+12,-1.8715973,-0.011199951,8.586029,-0.35542297,-0.061553955,-0.19403076,19.694519,7.536316,-50.07019,9.162739406,10.5504258,4706.322641,19.4904388,8.477549878,BLANK,0.520931008,0.135531724
4.70633E+12,-2.0245667,0.07397461,8.350952,-0.2752533,-0.06813049,-0.14448547,19.432068,8.584595,-50.837708,9.122150035,10.5504258,4706.327676,19.48752026,8.482902134,BLANK,0.520931008,0.121530864
4.70633E+12,-2.0142517,0.33636475,7.9937744,-0.20462036,-0.085250854,-0.08248901,19.432068,8.584595,-50.837708,9.065731254,10.5504258,4706.332712,19.48474765,8.487986777,BLANK,0.520931008,0.111329871
4.70634E+12,-1.7023773,0.5211334,7.773651,-0.1408844,-0.1113739,-0.011749268,19.432068,8.584595,-50.837708,9.001127241,10.5504258,4706.337747,19.48211367,8.492817188,BLANK,0.520931008,0.105175914
4.70634E+12,-1.3504639,0.63752747,7.5855255,-0.08380127,-0.138031,0.058029175,19.432068,8.584595,-50.837708,8.930347154,10.5504258,4706.342783,19.47961138,8.497406079,BLANK,0.520931008,0.102818577
4.70635E+12,-0.9708252,0.8221741,7.6138916,-0.043762207,-0.16699219,0.115112305,19.615173,8.114624,-50.55847,8.864524376,10.5504258,4706.347818,19.48638946,8.478266975,BLANK,0.520931008,0.103433263
4.70635E+12,-0.6352234,0.99967957,7.5408325,-0.013244629,-0.19177246,0.15890503,19.615173,8.114624,-50.55847,8.798339782,10.5504258,4706.352853,19.49282864,8.460084826,BLANK,0.520931008,0.106206852
4.70636E+12,-0.19882202,1.2527924,7.418625,0.019210815,-0.20803833,0.19189453,19.615173,8.114624,-50.55847,8.729354043,10.5504258,4706.357889,19.49894586,8.442811785,BLANK,0.520931008,0.110491236
4.70636E+12,0.17164612,1.3480835,7.4111786,0.05293274,-0.21087646,0.2106018,19.615173,8.114624,-50.55847,8.663445271,10.5504258,4706.362924,19.50475722,8.426402396,BLANK,0.520931008,0.115496764
4.70637E+12,0.36865234,1.2216644,7.3559265,0.08331299,-0.20664978,0.21331787,19.694519,7.8796387,-50.405884,8.598069332,10.5504258,4706.36796,19.51424531,8.399064211,BLANK,0.520931008,0.120387819
4.70637E+12,0.3222046,1.1860657,7.1704407,0.11798096,-0.19662476,0.20106506,19.694519,7.8796387,-50.405884,8.526687901,10.5504258,4706.372995,19.52325899,8.373092935,BLANK,0.520931008,0.124421681
4.70638E+12,0.26945496,1.3320313,6.81514,0.15382385,-0.17738342,0.18475342,19.694519,7.8796387,-50.405884,8.441110506,10.5504258,4706.37803,19.53182199,8.348420224,BLANK,0.520931008,0.127438268
4.70638E+12,0.24154663,1.4862518,6.555435,0.18623352,-0.15089417,0.16967773,19.694519,7.8796387,-50.405884,8.346826731,10.5504258,4706.383066,19.53995684,8.324981147,BLANK,0.520931008,0.129550241
4.70639E+12,0.13108826,1.509613,6.4260254,0.21333313,-0.11885071,0.15931702,18.128967,8.874512,-49.71161,8.250786664,10.5504258,4706.388101,19.46940735,8.35245769,BLANK,0.520931008,0.13103858
4.70639E+12,-0.111694336,1.4503021,6.3379974,0.22756958,-0.093673706,0.14912415,18.128967,8.874512,-49.71161,8.155147201,10.5504258,4706.393137,19.40238533,8.378560406,BLANK,0.520931008,0.131942859
4.7064E+12,-0.33010864,1.3512878,6.2562714,0.23550415,-0.07258606,0.14012146,18.128967,8.874512,-49.71161,8.060203411,10.5504258,4706.398172,19.33871442,8.403357985,BLANK,0.520931008,0.132351789
4.7064E+12,-0.49137878,1.282608,6.188431,0.23947144,-0.051940918,0.13948059,18.128967,8.874512,-49.71161,7.96661479,10.5504258,4706.403207,19.27822704,8.426915686,BLANK,0.520931008,0.132708229
4.70641E+12,-0.62590027,1.2612152,6.166275,0.24107361,-0.03390503,0.1516571,19.667053,9.223938,-50.26703,7.876597801,10.5504258,4706.408243,19.29766834,8.466766802,BLANK,0.520931008,0.133655672
4.70641E+12,-0.7856903,1.2962494,6.1743927,0.23919678,-0.015686035,0.17599487,19.667053,9.223938,-50.26703,7.791487546,10.5504258,4706.413278,19.31613758,8.504625362,BLANK,0.520931008,0.135772632
4.70642E+12,-0.83729553,1.3740082,6.1044006,0.23625183,0.006515503,0.2118988,19.667053,9.223938,-50.26703,7.707133198,10.5504258,4706.418314,19.33368335,8.540590994,BLANK,0.520931008,0.139578941
4.70642E+12,-0.71113586,1.5167542,5.941269,0.2345581,0.029647827,0.2520752,19.667053,9.223938,-50.26703,7.618839988,10.5504258,4706.423349,19.35035183,8.574758344,BLANK,0.520931008,0.145203754
4.70643E+12,-0.41767883,1.7666168,5.837631,0.23295593,0.04675293,0.29566956,20.037842,9.25293,-50.405884,7.529779539,10.5504258,4706.428384,19.38472634,8.608666927,BLANK,0.520931008,0.152727044
4.70643E+12,-0.048339844,2.0831757,5.795349,0.22698975,0.05769348,0.33554077,20.037842,9.25293,-50.405884,7.443058012,10.5504258,4706.43342,19.41738212,8.64088008,BLANK,0.520931008,0.16186773
4.70644E+12,0.31282043,2.4213257,5.7086487,0.21226501,0.06611633,0.36082458,20.037842,9.25293,-50.405884,7.356337546,10.5504258,4706.438455,19.44840511,8.671482576,BLANK,0.520931008,0.171815573
4.70644E+12,0.6697235,2.7170258,5.600708,0.1876831,0.07594299,0.36787415,20.037842,9.25293,-50.405884,7.268556069,10.5504258,4706.443491,19.47787696,8.700554948,BLANK,0.520931008,0.181618502
4.70645E+12,0.966156,2.9407349,5.55365,0.15220642,0.0884552,0.35350037,19.577026,8.180237,-51.75171,7.182810766,10.5504258,4706.448526,19.48283441,8.67453905,BLANK,0.520931008,0.190212595
4.70645E+12,1.1728668,3.1348877,5.563019,0.10913086,0.09965515,0.32173157,19.577026,8.180237,-51.75171,7.101821177,10.5504258,4706.453561,19.48754399,8.649823948,BLANK,0.520931008,0.196788544
4.70646E+12,1.1804504,3.306549,5.811676,0.06590271,0.099624634,0.2762909,19.577026,8.180237,-51.75171,7.037313919,10.5504258,4706.458597,19.49201809,8.6263446,BLANK,0.520931008,0.200763662
4.70646E+12,0.97102356,3.3509216,6.2135468,0.03125,0.075424194,0.21594238,19.577026,8.180237,-51.75171,6.996125563,10.5504258,4706.463632,19.49626849,8.60403922,BLANK,0.520931008,0.201522597
4.70647E+12,0.60443115,3.2281647,6.600891,0.014465332,0.02633667,0.14901733,19.830322,8.360291,-51.01013,6.976363834,10.5504258,4706.468668,19.51297116,8.591851809,BLANK,0.520931008,0.198897334
4.70647E+12,0.05810547,2.977478,7.1090393,0.020523071,-0.04777527,0.07914734,19.830322,8.360291,-51.01013,6.982997608,10.5504258,4706.473703,19.5288387,8.580273769,BLANK,0.520931008,0.192909834
4.70648E+12,-0.4119568,2.7573242,7.615448,0.050445557,-0.13928223,0.021316528,19.830322,8.360291,-51.01013,7.014620127,10.5504258,4706.478738,19.54391287,8.56927463,BLANK,0.520931008,0.184330169
4.70648E+12,-0.7461853,2.5529938,8.034531,0.10057068,-0.23677063,-0.011169434,19.830322,8.360291,-51.01013,7.065615671,10.5504258,4706.483774,19.55823333,8.558825449,BLANK,0.520931008,0.174555189
4.70649E+12,-0.93473816,2.4134216,8.327072,0.16801453,-0.33309937,-0.011871338,19.865417,8.395386,-50.907898,7.128688487,10.5504258,4706.488809,19.57359251,8.550653476,BLANK,0.520931008,0.165233863
4.70649E+12,-0.97566223,2.3066254,8.558426,0.24761963,-0.41601563,0.012542725,19.865417,8.395386,-50.907898,7.200175363,10.5504258,4706.493845,19.58818373,8.542890103,BLANK,0.520931008,0.157599306
4.7065E+12,-0.9154358,2.3765259,8.692963,0.32025146,-0.4753418,0.0521698,19.865417,8.395386,-50.907898,7.274814745,10.5504258,4706.49888,19.6020454,8.535514897,BLANK,0.520931008,0.15232783
4.7065E+12,-0.7687073,2.5303802,8.63382,0.3926239,-0.51675415,0.10498047,19.865417,8.395386,-50.907898,7.342765008,10.5504258,4706.503915,19.61521398,8.528508453,BLANK,0.520931008,0.149960462
4.70651E+12,-0.5600281,2.6859436,8.547363,0.453125,-0.5296478,0.15625,20.523071,7.736206,-51.228333,7.402994907,10.5504258,4706.508951,19.66060683,8.48889333,BLANK,0.520931008,0.150274939
4.70651E+12,-0.27812195,2.8940582,8.495422,0.49441528,-0.51724243,0.19992065,20.523071,7.736206,-51.228333,7.457616262,10.5504258,4706.513986,19.70373004,8.451258963,BLANK,0.520931008,0.152757225
4.70652E+12,0.055358887,3.1754913,8.590561,0.5158539,-0.48399353,0.236969,20.523071,7.736206,-51.228333,7.514263499,10.5504258,4706.519022,19.74469708,8.415506315,BLANK,0.520931008,0.156967814
4.70652E+12,0.3735962,3.4074707,8.603714,0.5161743,-0.43440247,0.26057434,20.523071,7.736206,-51.228333,7.568736024,10.5504258,4706.524057,19.78361578,8.381541299,BLANK,0.520931008,0.16214814
4.70653E+12,0.62586975,3.52388,8.661819,0.49951172,-0.37454224,0.26361084,20.387268,7.2113037,-50.75836,7.623390173,10.5504258,4706.529092,19.81379839,8.32302942,BLANK,0.520931008,0.167221275
4.70653E+12,0.7481842,3.5641174,8.901993,0.4688263,-0.2975464,0.24682617,20.387268,7.2113037,-50.75836,7.687320314,10.5504258,4706.534128,19.84247187,8.267443134,BLANK,0.520931008,0.17120152
4.70654E+12,0.63087463,3.6355438,9.343338,0.4267273,-0.21969604,0.21168518,20.387268,7.2113037,-50.75836,7.770121198,10.5504258,4706.539163,19.86971168,8.214636162,BLANK,0.520931008,0.173225703
4.70654E+12,0.44122314,3.4929504,9.69075,0.37800598,-0.13719177,0.16319275,20.387268,7.2113037,-50.75836,7.866152638,10.5504258,4706.544199,19.89558949,8.164469539,BLANK,0.520931008,0.172724055
4.70655E+12,0.16293335,3.3124237,9.891037,0.3298645,-0.04966736,0.113967896,20.387268,7.2113037,-50.75836,7.967396857,10.5504258,4706.549234,19.92017342,8.116811247,BLANK,0.520931008,0.169786247
4.70655E+12,-0.12149048,3.131836,9.942947,0.3298645,-0.04966736,0.113967896,20.387268,7.2113037,-50.75836,8.066174364,10.5504258,4706.554269,19.94352815,8.071535869,BLANK,0.520931008,0.16699533
4.70656E+12,-0.35557556,2.985077,10.058289,0.25509644,0.12927246,0.036010742,20.387268,7.2113037,-50.75836,8.165780096,10.5504258,4706.559305,19.96571514,8.028524261,BLANK,0.520931008,0.1604461
4.70656E+12,-0.56430054,3.022995,10.181274,0.22058105,0.21128845,0.013046265,20.378113,7.1884155,-50.74005,8.266554791,10.5504258,4706.56434,19.98633503,7.986518823,BLANK,0.520931008,0.153076108
4.70657E+12,-0.7455139,3.038269,10.231369,0.19882202,0.26480103,0.002563477,20.378113,7.1884155,-50.74005,8.364795501,10.5504258,4706.569376,20.00592393,7.946613657,BLANK,0.520931008,0.145550477
4.70657E+12,-0.8742523,2.9524078,10.108185,0.18995667,0.2839508,-0.00302124,20.378113,7.1884155,-50.74005,8.451964976,10.5504258,4706.574411,20.02453339,7.908703749,BLANK,0.520931008,0.138121891
4.70658E+12,-0.92633057,2.9483032,9.787079,0.19921875,0.26852417,-6.87E-04,20.378113,7.1884155,-50.74005,8.518720677,10.5504258,4706.579446,20.04221237,7.872689337,BLANK,0.520931008,0.131181464
4.70658E+12,-0.8364563,2.984146,9.380066,0.21844482,0.21986389,0.002700806,18.62793,5.1208496,-50.750732,8.561787943,10.5504258,4706.584482,19.97149825,7.73509735,BLANK,0.520931008,0.124757431
4.70659E+12,-0.7240448,3.0625305,9.030457,0.2350769,0.14408875,0.006835938,18.62793,5.1208496,-50.750732,8.585221396,10.5504258,4706.589517,19.90431984,7.604384962,BLANK,0.520931008,0.118861357
4.70659E+12,-0.5264282,3.014801,8.925934,0.24229431,0.024673462,0.010192871,18.62793,5.1208496,-50.750732,8.602257026,10.5504258,4706.594553,19.84050034,7.480208194,BLANK,0.520931008,0.113427932
4.7066E+12,-0.46618652,2.9697266,9.132645,0.23362732,-0.11871338,0.005874634,18.62793,5.1208496,-50.750732,8.628776425,10.5504258,4706.599588,19.77987183,7.362240264,BLANK,0.520931008,0.108050267
4.7066E+12,-0.4011383,2.908661,9.549515,0.21546936,-0.28390503,-0.006881714,17.118835,4.6188354,-51.24359,8.674813354,10.5504258,4706.604623,19.64681999,7.225070021,BLANK,0.520931008,0.102303668
4.70661E+12,-0.29493713,2.8925934,10.112228,0.19171143,-0.4590454,-0.021331787,17.118835,4.6188354,-51.24359,8.746684086,10.5504258,4706.609659,19.52042074,7.09475829,BLANK,0.520931008,0.096121895
4.70661E+12,-0.17253113,2.8886719,10.752701,0.169281,-0.6282501,-0.032226563,17.118835,4.6188354,-51.24359,8.846984932,10.5504258,4706.614694,19.40034145,6.970962146,BLANK,0.520931008,0.089704473
4.70662E+12,-0.01083374,2.8286133,11.491379,0.14631653,-0.77993774,-0.04093933,17.118835,4.6188354,-51.24359,8.979204635,10.5504258,4706.61973,19.28626613,6.853355808,BLANK,0.520931008,0.083172282
4.70662E+12,0.12539673,2.741272,12.3107605,0.11416626,-0.90615845,-0.052337646,17.266846,4.6066284,-51.254272,9.145782429,10.5504258,4706.624765,19.18529512,6.741019438,BLANK,0.520931008,0.076396786
4.70663E+12,0.19848633,2.6630096,13.127731,0.06736755,-0.9706116,-0.065826416,17.266846,4.6066284,-51.254272,9.344879857,10.5504258,4706.6298,19.08937266,6.634299886,BLANK,0.520931008,0.069285626
4.70663E+12,0.28471375,2.6387787,13.943512,9.16E-04,-0.9670563,-0.08039856,17.266846,4.6066284,-51.254272,9.574811464,10.5504258,4706.634836,18.99824633,6.532916312,BLANK,0.520931008,0.061801417
4.70664E+12,0.39646912,2.5523071,14.75621,-0.08049011,-0.90008545,-0.09609985,17.266846,4.6066284,-51.254272,9.833881391,10.5504258,4706.639871,18.91167631,6.436601916,BLANK,0.520931008,0.053906353
4.70664E+12,0.443573,2.4502258,15.388794,-0.15878296,-0.7872772,-0.11323547,19.216919,4.4311523,-51.454163,10.11162702,10.5504258,4706.644907,18.92693845,6.336329435,BLANK,0.520931008,0.045549262
4.70665E+12,0.32887268,2.4092255,15.873062,-0.22789001,-0.6377411,-0.13510132,19.216919,4.4311523,-51.454163,10.39969877,10.5504258,4706.649942,18.94143748,6.241070579,BLANK,0.520931008,0.036516733
4.70665E+12,0.15594482,2.256424,16.067307,-0.28544617,-0.45629883,-0.16636658,19.216919,4.4311523,-51.454163,10.68307918,10.5504258,4706.654977,18.95521155,6.150574665,BLANK,0.520931008,0.026372567
4.70666E+12,0.0834198,2.027176,16.03891,-0.32048035,-0.27619934,-0.20129395,19.216919,4.4311523,-51.454163,10.95087072,10.5504258,4706.660013,18.96829693,6.064603546,BLANK,0.520931008,0.014989242
4.70667E+12,-0.032211304,1.859848,15.8749695,-0.33587646,-0.10153198,-0.23460388,17.805481,4.2755127,-51.913452,11.19707566,10.5504258,4706.665048,18.91015613,5.975149004,BLANK,0.520931008,0.002509585
4.70667E+12,-0.20707703,1.7654724,15.463974,-0.33903503,0.05583191,-0.26568604,17.805481,4.2755127,-51.913452,11.41042058,10.5504258,4706.670084,18.85492237,5.890167189,BLANK,0.520931008,-0.010900196
4.70668E+12,-0.33895874,1.7103577,14.918549,-0.3368988,0.1874237,-0.2940216,17.805481,4.2755127,-51.913452,11.585827,10.5504258,4706.675119,18.8024503,5.809434464,BLANK,0.520931008,-0.025056266
4.70668E+12,-0.41734314,1.6460571,14.360168,-0.33361816,0.29611206,-0.3202057,17.805481,4.2755127,-51.913452,11.72454405,10.5504258,4706.680154,18.75260184,5.732738376,BLANK,0.520931008,-0.039813738
4.70669E+12,-0.44218445,1.5654144,13.810333,-0.32833862,0.36647034,-0.34124756,17.713928,4.3655396,-51.82495,11.8288335,10.5504258,4706.68519,18.70066815,5.664378437,BLANK,0.520931008,-0.054885429
4.70669E+12,-0.4766388,1.5030975,13.405518,-0.32244873,0.39379883,-0.35609436,17.713928,4.3655396,-51.82495,11.90766772,10.5504258,4706.690225,18.65133114,5.599436496,BLANK,0.520931008,-0.069945875
4.7067E+12,-0.5525818,1.3736877,13.140671,-0.31698608,0.38415527,-0.36987305,17.713928,4.3655396,-51.82495,11.96931789,10.5504258,4706.695261,18.60446098,5.537741651,BLANK,0.520931008,-0.084942234
4.7067E+12,-0.76600647,1.1801453,12.872025,-0.30873108,0.34448242,-0.3812561,17.713928,4.3655396,-51.82495,12.01445324,10.5504258,4706.700296,18.55993433,5.479131548,BLANK,0.520931008,-0.099757927
4.70671E+12,-1.0380096,1.0194855,12.443939,-0.29464722,0.29354858,-0.3832245,16.989136,5.142212,-51.419067,12.03592753,10.5504258,4706.705331,18.48139442,5.462285571,BLANK,0.520931008,-0.113931256
4.70671E+12,-1.2657928,0.95458984,11.996216,-0.28108215,0.24081421,-0.37374878,16.989136,5.142212,-51.419067,12.03394195,10.5504258,4706.710367,18.4067815,5.446281892,BLANK,0.520931008,-0.126922132
4.70672E+12,-1.3375244,0.99079895,11.560699,-0.27841187,0.19447327,-0.35110474,16.989136,5.142212,-51.419067,12.01027981,10.5504258,4706.715402,18.33589922,5.431078398,BLANK,0.520931008,-0.138131263
4.70672E+12,-1.2330475,1.0757904,11.323441,-0.2906494,0.14996338,-0.31611633,16.989136,5.142212,-51.419067,11.97593787,10.5504258,4706.720438,18.26856106,5.416635078,BLANK,0.520931008,-0.147030516
4.70673E+12,-0.98924255,1.19841,11.2374115,-0.31843567,0.10038757,-0.27308655,16.259766,6.163025,-52.416992,11.93901155,10.5504258,4706.725473,18.16812131,5.453954574,BLANK,0.520931008,-0.153333318
4.70673E+12,-0.63186646,1.288269,11.518753,-0.35603333,0.04396057,-0.22741699,16.259766,6.163025,-52.416992,11.91799862,10.5504258,4706.730508,18.07270354,5.489408095,BLANK,0.520931008,-0.157037501
4.70674E+12,-0.3433075,1.4095306,11.837875,-0.3907013,-0.017852783,-0.18980408,16.259766,6.163025,-52.416992,11.91399244,10.5504258,4706.735544,17.98205666,5.52308894,BLANK,0.520931008,-0.15867583
4.70674E+12,0.02229309,1.4893494,12.356857,-0.41764832,-0.09416199,-0.15623474,16.259766,6.163025,-52.416992,11.93613567,10.5504258,4706.740579,17.89594213,5.555085743,BLANK,0.520931008,-0.158553776
4.70675E+12,0.5282898,1.6028748,12.892563,-0.42092896,-0.17427063,-0.13066101,16.360474,6.466675,-52.18506,11.98395703,10.5504258,4706.745615,17.81916872,5.600665206,BLANK,0.520931008,-0.157159137
4.70675E+12,0.91874695,1.6504364,13.380035,-0.39938354,-0.24816895,-0.113220215,16.360474,6.466675,-52.18506,12.05376093,10.5504258,4706.75065,17.74623399,5.643965696,BLANK,0.520931008,-0.154962191
4.70676E+12,1.1276398,1.7612915,13.840469,-0.35487366,-0.3093567,-0.10441589,16.360474,6.466675,-52.18506,12.14309634,10.5504258,4706.755685,17.67694599,5.685101161,BLANK,0.520931008,-0.152434876
4.70676E+12,1.1614532,1.7248993,13.97847,-0.28837585,-0.3514862,-0.10366821,16.360474,6.466675,-52.18506,12.23486502,10.5504258,4706.760721,17.61112239,5.724179853,BLANK,0.520931008,-0.149996543
4.70677E+12,1.084198,1.7000122,14.036621,-0.2083435,-0.37330627,-0.11112976,16.775513,7.4142456,-51.24359,12.32495282,10.5504258,4706.765756,17.56934192,5.80868314,BLANK,0.520931008,-0.148053204
4.70677E+12,1.1602783,1.6431732,13.793137,-0.10220337,-0.3801117,-0.11732483,16.775513,7.4142456,-51.24359,12.39836203,10.5504258,4706.770792,17.52965047,5.888961263,BLANK,0.520931008,-0.146516785
4.70678E+12,1.2931824,1.7159119,13.459656,0.003494263,-0.36141968,-0.11230469,16.775513,7.4142456,-51.24359,12.45142673,10.5504258,4706.775827,17.4919436,5.96522548,BLANK,0.520931008,-0.14480618
4.70678E+12,1.3718567,1.7167816,13.006668,0.105270386,-0.31796265,-0.10467529,16.775513,6.335449,-51.24359,12.47918879,10.5504258,4706.780862,17.45612207,5.983736656,BLANK,0.520931008,-0.142799636
4.70679E+12,1.4175415,1.6000366,12.519333,0.19326782,-0.25646973,-0.09500122,16.775513,6.335449,-51.24359,12.481196,10.5504258,4706.785898,17.42209162,6.001322273,BLANK,0.520931008,-0.140409715
4.70679E+12,1.3904572,1.6158295,11.921158,0.19326782,-0.25646973,-0.09500122,16.775513,6.335449,-51.24359,12.4531941,10.5504258,4706.790933,17.38976269,6.01802861,BLANK,0.520931008,-0.13813929
4.7068E+12,1.3852692,1.6635742,10.891907,0.33081055,-0.0945282,-0.07595825,16.775513,6.335449,-51.24359,12.37512974,10.5504258,4706.795969,17.3590502,6.033899629,BLANK,0.520931008,-0.135030238
4.7068E+12,1.3550873,1.6897278,10.016006,0.39544678,-3.97E-04,-0.06402588,17.175293,6.5567017,-51.54724,12.25717356,10.5504258,4706.801004,17.34986234,6.060039733,BLANK,0.520931008,-0.13148002
4.70681E+12,1.32547,1.7052002,9.023758,0.4431305,0.07583618,-0.051071167,17.175293,6.5567017,-51.54724,12.09550278,10.5504258,4706.806039,17.34113387,6.084872831,BLANK,0.520931008,-0.127459578
4.70681E+12,1.3672638,1.7016754,8.10289,0.47784424,0.13301086,-0.03918457,17.175293,6.5567017,-51.54724,11.89587214,10.5504258,4706.811075,17.33284183,6.108464275,BLANK,0.520931008,-0.123045827
4.70682E+12,1.4721527,1.83255,7.3118896,0.49369812,0.17448425,-0.028305054,17.175293,6.5567017,-51.54724,11.66667301,10.5504258,4706.81611,17.32496439,6.130876146,BLANK,0.520931008,-0.118308789
4.70682E+12,1.5987244,1.9880371,6.6200714,0.49183655,0.19487,-0.01789856,17.89093,7.2402954,-52.36969,11.41434293,10.5504258,4706.821146,17.35326267,6.186347109,BLANK,0.520931008,-0.113288277
4.70683E+12,1.6936646,2.1380157,6.003372,0.47306824,0.19598389,-0.011169434,17.89093,7.2402954,-52.36969,11.14379439,10.5504258,4706.826181,17.38014604,6.239044523,BLANK,0.520931008,-0.108182335
4.70683E+12,1.795578,2.2346954,5.486786,0.434906,0.18011475,-0.016784668,17.89093,7.2402954,-52.36969,10.86094397,10.5504258,4706.831216,17.40568523,6.289107067,BLANK,0.520931008,-0.103612452
4.70684E+12,1.875473,2.3110962,5.0870056,0.38728333,0.15246582,-0.03112793,17.89093,7.2402954,-52.36969,10.57224705,10.5504258,4706.836252,17.42994747,6.336666484,BLANK,0.520931008,-0.099988226
4.70684E+12,1.9673767,2.3667145,4.861557,0.3231964,0.11782837,-0.051605225,16.775513,7.3654175,-52.249146,10.28671255,10.5504258,4706.841287,17.39722575,6.388104034,BLANK,0.520931008,-0.097569076
4.70685E+12,1.9632874,2.3945923,4.8074036,0.2475586,0.07647705,-0.08026123,16.775513,7.3654175,-52.249146,10.0127471,10.5504258,4706.846323,17.36614011,6.436969708,BLANK,0.520931008,-0.096703683
4.70685E+12,1.9850159,2.4140015,4.8598785,0.16659546,0.033187866,-0.114715576,16.775513,7.3654175,-52.249146,9.755103669,10.5504258,4706.851358,17.33660876,6.483392097,BLANK,0.520931008,-0.097604278
4.70686E+12,1.9884949,2.3933716,5.1677246,0.08439636,-0.012405396,-0.15019226,16.775513,7.3654175,-52.249146,9.525734715,10.5504258,4706.856393,17.30855397,6.527493367,BLANK,0.520931008,-0.100233677
4.70686E+12,1.8042145,2.2774048,5.554352,-0.001373291,-0.064819336,-0.19184875,16.775513,7.1411133,-51.809692,9.32716558,10.5504258,4706.861429,17.28190192,6.558174364,BLANK,0.520931008,-0.104814431
4.70687E+12,1.6531677,2.117981,5.963394,-0.071884155,-0.11357117,-0.2344513,16.775513,7.1411133,-51.809692,9.158977001,10.5504258,4706.866464,17.25658247,6.587321311,BLANK,0.520931008,-0.111296274
4.70687E+12,1.5973206,2.0707397,6.434784,-0.12684631,-0.15988159,-0.27488708,16.775513,7.1411133,-51.809692,9.022767351,10.5504258,4706.8715,17.232529,6.61501091,BLANK,0.520931008,-0.119475814
4.70688E+12,1.5391083,2.014511,6.8405914,-0.16629028,-0.20223999,-0.30847168,16.775513,7.1411133,-51.809692,8.913658553,10.5504258,4706.876535,17.2096782,6.64131603,BLANK,0.520931008,-0.128925608
4.70688E+12,1.4450073,1.8874817,7.14386,-0.18644714,-0.23744202,-0.33506775,17.185974,6.854248,-51.42212,8.825168625,10.5504258,4706.88157,17.20849299,6.651962628,BLANK,0.520931008,-0.139232715
4.70689E+12,1.3250885,1.8021088,7.3684387,-0.1895752,-0.2636261,-0.36001587,17.185974,6.854248,-51.42212,8.752332129,10.5504258,4706.886606,17.20736704,6.662076897,BLANK,0.520931008,-0.150271873
4.70689E+12,1.2093964,1.76828,7.559067,-0.17658997,-0.28378296,-0.38308716,17.185974,6.854248,-51.42212,8.692668873,10.5504258,4706.891641,17.20629739,6.671685452,BLANK,0.520931008,-0.161912637
4.7069E+12,1.1595001,1.734436,7.7186584,-0.15159607,-0.30337524,-0.39900208,17.185974,6.854248,-51.42212,8.643968349,10.5504258,4706.896677,17.20528122,6.680813579,BLANK,0.520931008,-0.173767109
4.7069E+12,1.1540222,1.7110901,7.7982025,-0.11882019,-0.32409668,-0.40933228,17.977905,7.192993,-52.416992,8.601680057,10.5504258,4706.901712,17.24391241,6.706422551,BLANK,0.520931008,-0.185545368
4.70691E+12,1.184845,1.7653656,7.7261505,-0.08216858,-0.33677673,-0.41516113,17.977905,7.192993,-52.416992,8.557903579,10.5504258,4706.906747,17.28061204,6.730751073,BLANK,0.520931008,-0.197026156
4.70691E+12,1.2962036,1.861618,7.5828247,-0.051116943,-0.33410645,-0.41885376,17.977905,7.192993,-52.416992,8.509149635,10.5504258,4706.911783,17.31547669,6.753863169,BLANK,0.520931008,-0.208117536
4.70692E+12,1.3579102,1.9290009,7.5287476,-0.031921387,-0.3113861,-0.42500305,17.977905,7.192993,-52.416992,8.460129533,10.5504258,4706.916818,17.3485981,6.775819661,BLANK,0.520931008,-0.218961812
4.70692E+12,1.295517,1.9375458,7.499298,-0.028579712,-0.26837158,-0.43681335,17.640686,7.797241,-51.693726,8.412087956,10.5504258,4706.921854,17.3632025,6.826890728,BLANK,0.520931008,-0.229854389
4.70693E+12,1.1429443,1.9224854,7.523163,-0.037231445,-0.21434021,-0.4530182,17.640686,7.797241,-51.693726,8.367641709,10.5504258,4706.926889,17.37707667,6.875408241,BLANK,0.520931008,-0.241012579
4.70693E+12,1.0151825,1.8774109,7.467087,-0.047851563,-0.15435791,-0.47187805,17.640686,7.797241,-51.693726,8.322613973,10.5504258,4706.931924,17.39025714,6.921499879,BLANK,0.520931008,-0.252555853
4.70694E+12,0.8851929,1.8326721,7.3162994,-0.052642822,-0.093307495,-0.48719788,17.640686,7.797241,-51.693726,8.272298245,10.5504258,4706.93696,17.40277858,6.965286935,BLANK,0.520931008,-0.264287954
4.70694E+12,0.7338257,1.742569,7.0355377,-0.051956177,-0.037994385,-0.4982605,16.90979,7.9727173,-51.182556,8.210460217,10.5504258,4706.941995,17.37812915,7.015658454,BLANK,0.520931008,-0.275986581
4.70695E+12,0.59721375,1.7404327,6.7460175,-0.04676819,0.015029907,-0.5042877,16.90979,7.9727173,-51.182556,8.137238081,10.5504258,4706.947031,17.35471219,7.063511396,BLANK,0.520931008,-0.287401637
4.70695E+12,0.484787,1.7877502,6.4903717,-0.039260864,0.060653687,-0.5036926,16.90979,7.9727173,-51.182556,8.054894762,10.5504258,4706.952066,17.33246608,7.108971691,BLANK,0.520931008,-0.298216185
4.70696E+12,0.48364258,1.8177338,6.425232,-0.036499023,0.097473145,-0.49827576,16.90979,7.9727173,-51.182556,7.973411624,10.5504258,4706.957101,17.31133228,7.152158972,BLANK,0.520931008,-0.308219164
4.70696E+12,0.6354675,1.8878632,6.5056458,-0.037078857,0.120651245,-0.4900818,16.603088,6.8496704,-52.0813,7.900023333,10.5504258,4706.962137,17.27592007,7.137034543,BLANK,0.520931008,-0.317312296
4.70697E+12,0.7787781,1.9330597,6.576935,-0.034744263,0.12579346,-0.4813385,16.603088,6.8496704,-52.0813,7.833868916,10.5504258,4706.967172,17.24227846,7.122666336,BLANK,0.520931008,-0.325513606
4.70697E+12,0.7405548,1.9440155,6.717453,-0.023498535,0.11701965,-0.4788208,16.603088,6.8496704,-52.0813,7.778048121,10.5504258,4706.972208,17.21031894,7.109016539,BLANK,0.520931008,-0.333178966
4.70698E+12,0.55851746,1.9195862,6.7612305,0.006439209,0.09025574,-0.4812317,16.603088,6.8496704,-52.0813,7.72720724,10.5504258,4706.977243,17.17995739,7.096049232,BLANK,0.520931008,-0.340581603
4.70698E+12,0.30485535,1.8629608,6.594757,0.0554657,0.046401978,-0.48735046,15.975952,6.692505,-52.233887,7.670584728,10.5504258,4706.982278,17.11975712,7.075872021,BLANK,0.520931008,-0.347920045
4.70699E+12,0.13804626,1.8001862,6.5196075,0.11328125,-0.005966187,-0.4900818,15.975952,6.692505,-52.233887,7.613035866,10.5504258,4706.987314,17.06256687,7.056703669,BLANK,0.520931008,-0.355028133
4.70699E+12,0.07736206,1.7700653,6.3522034,0.16621399,-0.055404663,-0.48353577,15.975952,6.692505,-52.233887,7.549994243,10.5504258,4706.992349,17.00823612,7.038493736,BLANK,0.520931008,-0.361453515
4.707E+12,2.14E-04,1.6987457,6.3339996,0.20181274,-0.08772278,-0.46392822,15.975952,6.692505,-52.233887,7.489194511,10.5504258,4706.997385,16.95662192,7.021194299,BLANK,0.520931008,-0.36657725
4.707E+12,-0.01399231,1.8009033,6.335495,0.22109985,-0.10394287,-0.43797302,15.792847,7.2296143,-51.394653,7.431509535,10.5504258,4707.00242,16.89843317,7.031615299,BLANK,0.520931008,-0.370147039
4.70701E+12,0.12782288,1.8465576,6.4230957,0.2368164,-0.11514282,-0.40670776,15.792847,7.2296143,-51.394653,7.381088843,10.5504258,4707.007455,16.84315386,7.041515249,BLANK,0.520931008,-0.371975075
4.70701E+12,0.23570251,1.8816986,6.5742188,0.24674988,-0.12495422,-0.3762207,15.792847,7.2296143,-51.394653,7.340745341,10.5504258,4707.012491,16.79063852,7.050920202,BLANK,0.520931008,-0.372187356
4.70702E+12,0.3607025,1.9685059,6.6056976,0.25442505,-0.13020325,-0.34890747,16.43219,8.052063,-50.238037,7.303992954,10.5504258,4707.017526,16.77271609,7.100977342,BLANK,0.520931008,-0.371023362
4.70702E+12,0.50187683,2.0872192,6.5849304,0.26190186,-0.12208557,-0.3262024,16.43219,8.052063,-50.238037,7.268039826,10.5504258,4707.022562,16.75568979,7.148531625,BLANK,0.520931008,-0.368782314
4.70703E+12,0.6881561,2.2045593,6.6933746,0.26489258,-0.10342407,-0.310318,16.43219,8.052063,-50.238037,7.239306565,10.5504258,4707.027597,16.7395148,7.193708193,BLANK,0.520931008,-0.365859098
4.70703E+12,0.6938629,2.3059845,6.8107452,0.26385498,-0.0821228,-0.30126953,16.43219,8.052063,-50.238037,7.217878497,10.5504258,4707.032632,16.72414856,7.236625934,BLANK,0.520931008,-0.36262962
4.70704E+12,0.6521454,2.3079987,6.8826294,0.2566986,-0.05491638,-0.30418396,16.16211,7.7819824,-51.197815,7.201116042,10.5504258,4707.037668,16.69604663,7.263893757,BLANK,0.520931008,-0.359707337
4.70704E+12,0.5844116,2.3442383,7.034073,0.24908447,-0.027832031,-0.3117981,16.16211,7.7819824,-51.197815,7.19276389,10.5504258,4707.042703,16.6693498,7.289798189,BLANK,0.520931008,-0.357311875
4.70705E+12,0.5904999,2.3843842,7.2011414,0.24253845,-0.002685547,-0.3188324,16.16211,7.7819824,-51.197815,7.193182765,10.5504258,4707.047739,16.64398781,7.3144074,BLANK,0.520931008,-0.355387901
4.70705E+12,0.5786133,2.3824158,7.476227,0.24360657,0.014755249,-0.32173157,16.16211,7.7819824,-51.197815,7.207334977,10.5504258,4707.052774,16.61989392,7.33778615,BLANK,0.520931008,-0.353705084
4.70706E+12,0.49432373,2.3809967,7.58519,0.25045776,0.025482178,-0.32337952,15.733337,6.9869995,-52.615356,7.226227728,10.5504258,4707.057809,16.57556607,7.320246817,BLANK,0.520931008,-0.352188806
4.70706E+12,0.3065796,2.3896332,7.6953125,0.26000977,0.03050232,-0.32658386,15.733337,6.9869995,-52.615356,7.249681967,10.5504258,4707.062845,16.53345462,7.303584451,BLANK,0.520931008,-0.350908559
4.70707E+12,0.22706604,2.4612732,7.674103,0.27833557,0.03463745,-0.3230133,15.733337,6.9869995,-52.615356,7.270903019,10.5504258,4707.06788,16.49344874,7.287755204,BLANK,0.520931008,-0.349513796
4.70707E+12,0.1391449,2.5321045,7.59346,0.29467773,0.033828735,-0.31347656,15.733337,6.9869995,-52.615356,7.287030868,10.5504258,4707.072916,16.45544315,7.272717419,BLANK,0.520931008,-0.347711934
4.70708E+12,0.050811768,2.5765991,7.58992,0.31254578,0.02281189,-0.2975769,15.57312,6.5063477,-53.086853,7.302175324,10.5504258,4707.077951,16.41132699,7.234398933,BLANK,0.520931008,-0.345205182
4.70708E+12,-0.08091736,2.5652466,7.7053223,0.33270264,0.00617981,-0.27957153,15.57312,6.5063477,-53.086853,7.322332673,10.5504258,4707.082986,16.36941664,7.197996371,BLANK,0.520931008,-0.3419235
4.70709E+12,-0.18916321,2.6141357,7.811447,0.34803772,-0.019897461,-0.26011658,15.57312,6.5063477,-53.086853,7.346788389,10.5504258,4707.088022,16.32960181,7.163413938,BLANK,0.520931008,-0.337833154
4.70709E+12,-0.18618774,2.682602,7.9030457,0.3625183,-0.05845642,-0.2386322,15.57312,6.5063477,-53.086853,7.374601255,10.5504258,4707.093057,16.29177772,7.130560626,BLANK,0.520931008,-0.332873106
4.7071E+12,-0.24395752,2.7545013,8.161453,0.37934875,-0.110961914,-0.21104431,16.47644,5.8029175,-52.20337,7.413943842,10.5504258,4707.098093,16.30101084,7.064178469,BLANK,0.520931008,-0.326781666
4.7071E+12,-0.29174805,2.791031,8.526291,0.39421082,-0.16520691,-0.1822815,16.47644,5.8029175,-52.20337,7.4695612,10.5504258,4707.103128,16.30978229,7.001115421,BLANK,0.520931008,-0.319556658
4.70711E+12,-0.32798767,2.8098602,9.017899,0.410141,-0.21742249,-0.15235901,16.47644,5.8029175,-52.20337,7.54697809,10.5504258,4707.108163,16.31811518,6.941205525,BLANK,0.520931008,-0.311196776
4.70711E+12,-0.39076233,2.843979,9.476639,0.43051147,-0.2597351,-0.122283936,16.47644,5.8029175,-52.20337,7.643461136,10.5504258,4707.113199,16.32603142,6.884291124,BLANK,0.520931008,-0.301751134
4.70712E+12,-0.40480042,2.9156952,9.774063,0.45542908,-0.29019165,-0.09370422,16.708374,5.9188843,-51.57776,7.749991229,10.5504258,4707.118234,16.34514855,6.836020782,BLANK,0.520931008,-0.291348788
4.70712E+12,-0.26200867,3.0737152,9.87912,0.489151,-0.30949402,-0.06227112,16.708374,5.9188843,-51.57776,7.856447667,10.5504258,4707.12327,16.36330982,6.790163958,BLANK,0.520931008,-0.279894905
4.70713E+12,0.037582397,3.2961884,9.921387,0.5333252,-0.31726074,-0.026428223,16.708374,5.9188843,-51.57776,7.959694634,10.5504258,4707.128305,16.38056303,6.746599975,BLANK,0.520931008,-0.267221571
4.70713E+12,0.331604,3.4844818,9.962585,0.5753174,-0.31944275,0.002990723,16.708374,5.9188843,-51.57776,8.059839152,10.5504258,4707.13334,16.39695358,6.705214192,BLANK,0.520931008,-0.253710956
4.70714E+12,0.48016357,3.5929108,9.828995,0.61172485,-0.31932068,0.020629883,16.43219,6.335449,-51.57776,8.148296945,10.5504258,4707.138376,16.3987154,6.686725932,BLANK,0.520931008,-0.239993914
4.70714E+12,0.5134125,3.6381989,9.502686,0.6431732,-0.32250977,0.023788452,16.43219,6.335449,-51.57776,8.216016397,10.5504258,4707.143411,16.40038913,6.669162085,BLANK,0.520931008,-0.226804796
4.70715E+12,0.56422424,3.6929016,9.057419,0.666275,-0.33561707,0.017181396,16.43219,6.335449,-51.57776,8.258086528,10.5504258,4707.148447,16.40197917,6.652476431,BLANK,0.520931008,-0.214605486
4.70715E+12,0.70240784,3.8353424,8.608292,0.6702423,-0.3598175,0.006668091,16.43219,6.335449,-51.57776,8.275596801,10.5504258,4707.153482,16.40348972,6.63662506,BLANK,0.520931008,-0.203541807
4.70716E+12,0.87275696,3.9676514,8.3888855,0.63861084,-0.38972473,-0.004577637,15.649414,5.999756,-52.775574,8.281261236,10.5504258,4707.158517,16.36578593,6.604781607,BLANK,0.520931008,-0.193593599
4.70716E+12,0.95700073,4.014511,8.587463,0.570282,-0.4190979,-0.020248413,15.649414,5.999756,-52.775574,8.296571324,10.5504258,4707.163553,16.32996733,6.574530326,BLANK,0.520931008,-0.184926339
4.70717E+12,0.89512634,3.9282074,9.163544,0.47061157,-0.45355225,-0.04307556,15.649414,5.999756,-52.775574,8.339919958,10.5504258,4707.168588,16.29593967,6.54579161,BLANK,0.520931008,-0.1778338
4.70717E+12,0.73983765,3.7898254,9.950867,0.35525513,-0.49076843,-0.07267761,15.649414,5.999756,-52.775574,8.42046731,10.5504258,4707.173624,16.26361338,6.518489829,BLANK,0.520931008,-0.172575991
4.70718E+12,0.48831177,3.5949554,10.777008,0.2450409,-0.5188904,-0.09983826,15.229797,5.366516,-52.537537,8.538294345,10.5504258,4707.178659,16.21192256,6.460891138,BLANK,0.520931008,-0.168939104
4.70718E+12,0.19311523,3.3269958,11.667191,0.13772583,-0.53596497,-0.12104797,15.229797,5.366516,-52.537537,8.694739177,10.5504258,4707.183694,16.16281629,6.406172381,BLANK,0.520931008,-0.166544548
4.70719E+12,0.03340149,3.1114502,12.607101,0.04559326,-0.5322113,-0.12689209,15.229797,5.366516,-52.537537,8.890357269,10.5504258,4707.18873,16.11616532,6.354189562,BLANK,0.520931008,-0.164561925
4.70719E+12,-0.032440186,2.882492,13.669403,-0.031402588,-0.5026245,-0.117263794,15.229797,5.366516,-52.537537,9.129309555,10.5504258,4707.193765,16.07184691,6.304805884,BLANK,0.520931008,-0.162197018
4.7072E+12,-0.110565186,2.7706757,14.81752,-0.0904541,-0.4487152,-0.09651184,15.229797,5.1330566,-52.0813,9.413720077,10.5504258,4707.198801,16.02974441,6.24621842,BLANK,0.520931008,-0.158912759
4.7072E+12,-0.12414551,2.7041168,15.732666,-0.122283936,-0.3751068,-0.0657959,15.229797,5.1330566,-52.0813,9.729667374,10.5504258,4707.203836,15.98974704,6.190560329,BLANK,0.520931008,-0.154256916
4.70721E+12,-0.12361145,2.6488953,16.415741,-0.122039795,-0.29022217,-0.030700684,15.229797,5.1330566,-52.0813,10.06397105,10.5504258,4707.208871,15.95174954,6.137685142,BLANK,0.520931008,-0.148079105
4.70721E+12,-0.20976257,2.6187592,16.55017,-0.08239746,-0.17831421,0.012115479,15.229797,5.1330566,-52.0813,10.388281,10.5504258,4707.213907,15.91565191,6.087453715,BLANK,0.520931008,-0.140069376
4.70722E+12,-0.22769165,2.583313,16.30864,-0.013534546,-0.060562134,0.054870605,14.370728,4.763794,-52.200317,10.68429895,10.5504258,4707.218942,15.83840572,6.021270729,BLANK,0.520931008,-0.130322377
4.70722E+12,-0.17765808,2.6725464,15.804855,0.068344116,0.062423706,0.10140991,14.370728,4.763794,-52.200317,10.94032675,10.5504258,4707.223978,15.76502183,5.958396893,BLANK,0.520931008,-0.118735762
4.70723E+12,-0.14888,2.7631378,15.049438,0.15304565,0.1804657,0.15019226,14.370728,4.763794,-52.200317,11.14578232,10.5504258,4707.229013,15.69530714,5.898666748,BLANK,0.520931008,-0.105289361
4.70723E+12,-0.10020447,2.7658844,14.341858,0.22781372,0.28485107,0.19612122,14.370728,4.763794,-52.200317,11.3055861,10.5504258,4707.234048,15.62907818,5.841923111,BLANK,0.520931008,-0.090218832
4.70724E+12,-0.007568359,3.018631,13.437073,0.28001404,0.37139893,0.23136902,14.897156,4.244995,-51.88446,11.41216045,10.5504258,4707.239084,15.59248207,5.762076705,BLANK,0.520931008,-0.074139439
4.70724E+12,0.46746826,3.3320007,12.8582,0.31602478,0.45022583,0.2657013,14.897156,4.244995,-51.88446,11.48446242,10.5504258,4707.244119,15.55771577,5.68622262,BLANK,0.520931008,-0.057147402
4.70725E+12,0.7170105,3.7025452,12.49791,0.31495667,0.50445557,0.29159546,14.897156,4.244995,-51.88446,11.5351348,10.5504258,4707.249155,15.52468778,5.614161239,BLANK,0.520931008,-0.039710259
4.70725E+12,0.7223358,3.8614197,12.086945,0.2984314,0.53157043,0.2950287,15.229797,4.1030884,-51.745605,11.56272531,10.5504258,4707.25419,15.50994324,5.538607597,BLANK,0.520931008,-0.022973311
4.70726E+12,0.6467438,3.8251953,11.568954,0.27902222,0.5213165,0.2725525,15.229797,4.1030884,-51.745605,11.56303675,10.5504258,4707.259225,15.49593593,5.466831637,BLANK,0.520931008,-0.008197021
4.70726E+12,0.50053406,3.7012634,11.03302,0.26182556,0.48353577,0.23753357,15.229797,4.1030884,-51.745605,11.53653591,10.5504258,4707.264261,15.48262898,5.398644475,BLANK,0.520931008,0.004089509
4.70727E+12,0.23052979,3.7026672,10.613968,0.23266602,0.4352417,0.19969177,15.229797,4.1030884,-51.745605,11.49040751,10.5504258,4707.269296,15.46998738,5.333866672,BLANK,0.520931008,0.013869622
4.70727E+12,-0.008346558,3.672577,10.4655,0.17614746,0.37121582,0.15701294,15.229797,3.565979,-50.70038,11.43916214,10.5504258,4707.274332,15.45797786,5.245472288,BLANK,0.520931008,0.021026788
4.70728E+12,-0.2160492,3.5884705,10.583328,0.101242065,0.31536865,0.123703,15.229797,3.565979,-50.70038,11.39637043,10.5504258,4707.279367,15.44656882,5.161497624,BLANK,0.520931008,0.026160598
4.70728E+12,-0.30101013,3.3471222,10.836258,0.004699707,0.2668152,0.100357056,15.229797,3.565979,-50.70038,11.36836481,10.5504258,4707.284402,15.43573023,5.081721692,BLANK,0.520931008,0.029870421
4.70729E+12,-0.39344788,3.1513214,11.348892,-0.10520935,0.23623657,0.082336426,15.229797,3.565979,-50.70038,11.36739117,10.5504258,4707.289438,15.42543357,5.005934558,BLANK,0.520931008,0.032493721
4.70729E+12,-0.52153015,2.9326782,11.890152,-0.21670532,0.22361755,0.07281494,14.68811,2.8747559,-51.460266,11.39352921,10.5504258,4707.294473,15.38856739,4.899375625,BLANK,0.520931008,0.034509782
4.7073E+12,-0.6769104,2.65419,12.400345,-0.31448364,0.22782898,0.06954956,14.68811,2.8747559,-51.460266,11.44387,10.5504258,4707.299509,15.35354452,4.798144639,BLANK,0.520931008,0.036261771
4.7073E+12,-0.77915955,2.3930511,12.655624,-0.40092468,0.2437439,0.07229614,14.68811,2.8747559,-51.460266,11.5044577,10.5504258,4707.304544,15.32027279,4.701975202,BLANK,0.520931008,0.03806349
4.70731E+12,-0.9169159,2.1529388,12.872803,-0.45210266,0.25534058,0.08140564,14.68811,2.8747559,-51.460266,11.57287497,10.5504258,4707.309579,15.28866465,4.610614237,BLANK,0.520931008,0.040230597
4.70731E+12,-1.0862122,1.8934631,13.029022,-0.47372437,0.25595093,0.09666443,14.543152,2.7297974,-51.745605,11.64568232,10.5504258,4707.314615,15.25138902,4.516573395,BLANK,0.520931008,0.043052289
4.70732E+12,-1.2723999,1.6395111,13.208176,-0.46780396,0.24110413,0.11949158,14.543152,2.7297974,-51.745605,11.723807,10.5504258,4707.31965,15.21597717,4.427234595,BLANK,0.520931008,0.046874253
4.70732E+12,-1.3998566,1.3698273,13.549728,-0.43655396,0.20794678,0.14888,14.543152,2.7297974,-51.745605,11.81510305,10.5504258,4707.324686,15.18233591,4.342362735,BLANK,0.520931008,0.051974541
4.70733E+12,-1.3143616,1.2234344,13.86705,-0.37994385,0.16012573,0.18650818,14.543152,2.7297974,-51.745605,11.9177004,10.5504258,4707.329721,15.15037672,4.261734469,BLANK,0.520931008,0.058701223
4.70733E+12,-1.0809326,1.22966,13.960129,-0.2895813,0.104156494,0.23721313,15.559387,2.87323,-50.186157,12.01982183,10.5504258,4707.334756,15.17082723,4.192309245,BLANK,0.520931008,0.067626818
4.70734E+12,-0.8250427,1.2819672,13.803192,-0.18386841,0.06544495,0.29130554,15.559387,2.87323,-50.186157,12.10899034,10.5504258,4707.339792,15.19025522,4.126355283,BLANK,0.520931008,0.078810754
4.70734E+12,-0.66397095,1.3276367,13.351318,-0.06994629,0.05152893,0.33979797,15.559387,2.87323,-50.186157,12.17110672,10.5504258,4707.344827,15.20871181,4.063699019,BLANK,0.520931008,0.091860115
4.70735E+12,-0.56166077,1.4356842,12.688095,0.033416748,0.06808472,0.3764038,15.559387,2.87323,-50.186157,12.19695613,10.5504258,4707.349863,15.22624557,4.004175568,BLANK,0.520931008,0.106087299
4.70735E+12,-0.5050812,1.5122528,12.018768,0.11361694,0.11009216,0.40274048,16.036987,3.4851074,-52.468872,12.18804673,10.5504258,4707.354898,15.26678264,3.978222159,BLANK,0.520931008,0.120919958
4.70736E+12,-0.45684814,1.5269012,11.2625885,0.17034912,0.16766357,0.42211914,16.036987,3.4851074,-52.468872,12.14177382,10.5504258,4707.359933,15.30529286,3.953566421,BLANK,0.520931008,0.135979917
4.70736E+12,-0.3407898,1.6345215,10.496277,0.20265198,0.23449707,0.4363861,16.036987,3.4851074,-52.468872,12.05949898,10.5504258,4707.364969,15.34187756,3.93014347,BLANK,0.520931008,0.151000226
4.70737E+12,-0.30421448,1.7735443,9.87059,0.2104187,0.2993164,0.44781494,16.036987,3.4851074,-52.468872,11.95005353,10.5504258,4707.370004,15.37663304,3.907891667,BLANK,0.520931008,0.165840962
4.70738E+12,-0.31303406,1.851059,9.2938385,0.20529175,0.3497162,0.45281982,16.088867,3.5888672,-52.919006,11.81724278,10.5504258,4707.37504,15.41224473,3.891940444,BLANK,0.520931008,0.180189905
4.70738E+12,-0.29315186,1.9106445,8.729736,0.19458008,0.37843323,0.45098877,16.088867,3.5888672,-52.919006,11.66286744,10.5504258,4707.380075,15.44607585,3.876786781,BLANK,0.520931008,0.193729848
4.70739E+12,-0.24967957,1.9299774,8.176147,0.18209839,0.38485718,0.44670105,16.088867,3.5888672,-52.919006,11.48853141,10.5504258,4707.38511,15.47821541,3.862390802,BLANK,0.520931008,0.206378408
4.70739E+12,-0.23225403,1.9732513,7.7490234,0.16513062,0.3716278,0.44303894,16.088867,3.5888672,-52.919006,11.30155601,10.5504258,4707.390146,15.50874799,3.848714622,BLANK,0.520931008,0.218211435
4.7074E+12,-0.19673157,2.0363464,7.2389526,0.14273071,0.34057617,0.43873596,16.088867,3.9001465,-51.08795,11.09842584,10.5504258,4707.395181,15.53775394,3.851286216,BLANK,0.520931008,0.229237661
4.7074E+12,-0.12454224,2.0164032,6.7326508,0.117614746,0.3030243,0.431839,16.088867,3.9001465,-51.08795,10.88013709,10.5504258,4707.400217,15.56530959,3.85372923,BLANK,0.520931008,0.239367728
4.70741E+12,-0.05935669,2.031189,6.4621735,0.08633423,0.26634216,0.42640686,16.088867,3.9001465,-51.08795,10.65923891,10.5504258,4707.405252,15.59148746,3.856050094,BLANK,0.520931008,0.248719685
4.70741E+12,0.047714233,2.142868,6.315735,0.038848877,0.237854,0.4182434,16.088867,3.9001465,-51.08795,10.44206372,10.5504258,4707.410287,15.61635644,3.858254914,BLANK,0.520931008,0.25719587
4.70742E+12,0.23513794,2.276657,6.264328,-0.021347046,0.22125244,0.40675354,17.816162,3.4591675,-51.060486,10.23317693,10.5504258,4707.415323,15.72634671,3.838300543,BLANK,0.520931008,0.264673754
4.70742E+12,0.33961487,2.2296448,6.4178925,-0.09579468,0.21522522,0.38934326,17.816162,3.4591675,-51.060486,10.04241271,10.5504258,4707.420358,15.83083748,3.819343891,BLANK,0.520931008,0.270907229
4.70743E+12,0.30941772,2.085144,6.594681,-0.17214966,0.21466064,0.36386108,17.816162,3.4591675,-51.060486,9.870026123,10.5504258,4707.425394,15.93010371,3.801335072,BLANK,0.520931008,0.275554922
4.70743E+12,0.17163086,1.9918518,6.7253265,-0.24333191,0.22314453,0.33059692,17.816162,3.4591675,-51.060486,9.712791142,10.5504258,4707.430429,16.02440662,3.784226693,BLANK,0.520931008,0.278307022
4.70744E+12,0.06314087,1.8500061,6.8611298,-0.3052063,0.24534607,0.2992096,17.977905,3.4164429,-51.075745,9.570208075,10.5504258,4707.435464,16.12208154,3.765837503,BLANK,0.520931008,0.279352151
4.70744E+12,-0.003570557,1.7113037,7.109329,-0.35908508,0.27766418,0.27308655,17.977905,3.4164429,-51.075745,9.447164121,10.5504258,4707.4405,16.21487271,3.748367773,BLANK,0.520931008,0.279038871
4.70745E+12,-0.01234436,1.6535034,7.411377,-0.40063477,0.3111725,0.25546265,17.977905,3.4164429,-51.075745,9.345374765,10.5504258,4707.445535,16.30302433,3.73177153,BLANK,0.520931008,0.27786006
4.70745E+12,-0.054641724,1.6042023,7.5823517,-0.4332428,0.34062195,0.23803711,17.977905,3.4164429,-51.075745,9.257223612,10.5504258,4707.450571,16.38676836,3.716005098,BLANK,0.520931008,0.275868912
4.70746E+12,-0.019699097,1.5992737,7.616989,-0.44352722,0.35255432,0.22155762,17.138672,3.5842896,-50.58441,9.175211881,10.5504258,4707.455606,16.42436354,3.709419323,BLANK,0.520931008,0.273153347
4.70746E+12,-0.10417175,1.5430603,7.476959,-0.42845154,0.3446045,0.20515442,17.138672,3.5842896,-50.58441,9.090299237,10.5504258,4707.460641,16.46007896,3.703162837,BLANK,0.520931008,0.269753401
4.70747E+12,-0.19006348,1.5097809,7.1088257,-0.40296936,0.3277588,0.18478394,17.138672,3.5842896,-50.58441,8.99122556,10.5504258,4707.465677,16.49400862,3.697219175,BLANK,0.520931008,0.265504928
4.70747E+12,-0.28677368,1.5044403,6.703293,-0.37876892,0.30714417,0.167099,17.138672,3.5842896,-50.58441,8.876828932,10.5504258,4707.470712,16.52624179,3.691572696,BLANK,0.520931008,0.260584632
4.70748E+12,-0.43006897,1.4109497,6.269562,-0.36331177,0.28097534,0.1538086,17.790222,3.251648,-50.90027,8.746465586,10.5504258,4707.475748,16.5894408,3.669576462,BLANK,0.520931008,0.25524583
4.70748E+12,-0.5737152,1.195816,6.1376495,-0.35569763,0.24298096,0.141922,17.790222,3.251648,-50.90027,8.616024781,10.5504258,4707.480783,16.64947986,3.648680039,BLANK,0.520931008,0.249579639
4.70749E+12,-0.66304016,1.0803528,6.3548737,-0.3624878,0.2002716,0.1355896,17.790222,3.251648,-50.90027,8.502967227,10.5504258,4707.485818,16.70651696,3.628828437,BLANK,0.520931008,0.243880137
4.70749E+12,-0.80259705,1.0057983,6.4392395,-0.37750244,0.1491394,0.13607788,17.790222,3.251648,-50.90027,8.399780841,10.5504258,4707.490854,16.76070222,3.609969415,BLANK,0.520931008,0.238490024
4.7075E+12,-0.7164917,1.0923309,6.421646,-0.3869934,0.10423279,0.14533997,17.790222,3.251648,-50.90027,8.300874099,10.5504258,4707.495889,16.8121782,3.592053344,BLANK,0.520931008,0.233832521
4.7075E+12,-0.66796875,1.1616516,6.3776245,-0.391922,0.06945801,0.1617279,17.790222,3.251648,-50.90027,8.204711619,10.5504258,4707.500925,16.86108039,3.575033077,BLANK,0.520931008,0.23022729
4.70751E+12,-0.5966797,1.1123657,6.3806763,-0.39167786,0.036605835,0.17770386,17.790222,3.251648,-50.90027,8.113509853,10.5504258,4707.50596,16.90753747,3.558863823,BLANK,0.520931008,0.227601119
4.70751E+12,-0.5424042,1.0566864,6.508499,-0.38537598,-0.005187988,0.1885376,17.788696,3.2791138,-50.897217,8.03325931,10.5504258,4707.510995,16.9515954,3.544876322,BLANK,0.520931008,0.225647943
4.70752E+12,-0.5155029,1.0181885,6.547943,-0.37580872,-0.040496826,0.19999695,17.788696,3.2791138,-50.897217,7.958993495,10.5504258,4707.516031,16.99345043,3.531588196,BLANK,0.520931008,0.224365393
4.70752E+12,-0.55960083,0.9995575,6.374115,-0.36158752,-0.063568115,0.20913696,17.788696,3.2791138,-50.897217,7.87974957,10.5504258,4707.521066,17.03321271,3.518964476,BLANK,0.520931008,0.223603971
4.70753E+12,-0.5324402,1.1882172,6.1754,-0.34742737,-0.069869995,0.22090149,17.788696,3.2791138,-50.897217,7.794532092,10.5504258,4707.526102,17.07098687,3.506971942,BLANK,0.520931008,0.223468847
4.70753E+12,-0.45246887,1.244461,5.9793243,-0.33502197,-0.06619263,0.23574829,16.972351,5.1452637,-50.405884,7.703771702,10.5504258,4707.531137,17.06605508,3.58888653,BLANK,0.520931008,0.224082819
4.70754E+12,-0.1867218,1.3270721,5.79364,-0.33117676,-0.057373047,0.24908447,16.972351,5.1452637,-50.405884,7.608265117,10.5504258,4707.536172,17.06136988,3.666705389,BLANK,0.520931008,0.225332902
4.70754E+12,0.12034607,1.4738312,5.6763763,-0.34161377,-0.026977539,0.26124573,16.972351,5.1452637,-50.405884,7.511670676,10.5504258,4707.541208,17.05691893,3.740633304,BLANK,0.520931008,0.227128543
4.70755E+12,0.39772034,1.5594177,5.687256,-0.36216736,0.012252808,0.2646637,16.972351,5.1452637,-50.405884,7.420449942,10.5504258,4707.546243,17.05269054,3.810864824,BLANK,0.520931008,0.229005301
4.70755E+12,0.4814148,1.5388031,5.898758,-0.38375854,0.048217773,0.25726318,17.634583,5.4763794,-50.405884,7.344365345,10.5504258,4707.551279,17.08178516,3.894140553,BLANK,0.520931008,0.230418195
4.70756E+12,0.2723236,1.5016632,6.076889,-0.4012146,0.07548523,0.24021912,17.634583,5.4763794,-50.405884,7.280991528,10.5504258,4707.556314,17.10942505,3.973252495,BLANK,0.520931008,0.230908241
4.70756E+12,0.060424805,1.5334473,6.2158813,-0.41151428,0.09786987,0.21820068,17.634583,5.4763794,-50.405884,7.227736017,10.5504258,4707.561349,17.13568295,4.04840884,BLANK,0.520931008,0.230272863
4.70757E+12,-0.061920166,1.5264435,6.3115845,-0.40768433,0.11276245,0.19941711,17.634583,5.4763794,-50.405884,7.181928441,10.5504258,4707.566385,17.16062795,4.119807368,BLANK,0.520931008,0.228730076
4.70757E+12,-0.18103027,1.4865265,6.437042,-0.3898468,0.11894226,0.188797,17.619324,5.3756714,-50.47455,7.144684119,10.5504258,4707.57142,17.18356275,4.18260057,BLANK,0.520931008,0.226733422
4.70758E+12,-0.30162048,1.4165039,6.763504,-0.3661499,0.11462402,0.18777466,17.619324,5.3756714,-50.47455,7.125625113,10.5504258,4707.576456,17.20535082,4.242254111,BLANK,0.520931008,0.224785484
4.70758E+12,-0.39413452,1.3851929,7.284561,-0.33709717,0.10166931,0.19137573,17.619324,5.3756714,-50.47455,7.133571907,10.5504258,4707.581491,17.22604948,4.298924976,BLANK,0.520931008,0.223114996
4.70759E+12,-0.43997192,1.3945465,7.702179,-0.29890442,0.0909729,0.19981384,17.619324,5.3756714,-50.47455,7.162002262,10.5504258,4707.586526,17.2457132,4.352762297,BLANK,0.520931008,0.221949938
4.70759E+12,-0.48147583,1.4513245,7.7938538,-0.24980164,0.08900452,0.21434021,17.532349,4.4158936,-51.27716,7.193594839,10.5504258,4707.591562,17.26004499,4.355918862,BLANK,0.520931008,0.221569452
4.7076E+12,-0.53956604,1.5586853,7.4780273,-0.18728638,0.09576416,0.23428345,17.532349,4.4158936,-51.27716,7.207816462,10.5504258,4707.596597,17.27366019,4.358917599,BLANK,0.520931008,0.222205152
4.7076E+12,-0.49531555,1.646698,7.039398,-0.11531067,0.108810425,0.25639343,17.532349,4.4158936,-51.27716,7.199395539,10.5504258,4707.601633,17.28659463,4.361766399,BLANK,0.520931008,0.223914566
4.70761E+12,-0.3189392,1.7000275,6.734543,-0.057861328,0.12654114,0.27890015,17.532349,4.4158936,-51.27716,7.176152912,10.5504258,4707.606668,17.29888235,4.364472759,BLANK,0.520931008,0.226663845
4.70761E+12,-0.17254639,1.7991943,6.4614105,-0.028121948,0.14665222,0.30166626,18.148804,5.6488037,-51.57776,7.140415791,10.5504258,4707.611703,17.34137843,4.428689306,BLANK,0.520931008,0.230413966
4.70762E+12,-0.094833374,1.9442596,6.2500305,-0.020019531,0.16247559,0.32032776,18.148804,5.6488037,-51.57776,7.095896527,10.5504258,4707.616739,17.38174971,4.489695026,BLANK,0.520931008,0.234909655
4.70762E+12,0.036727905,2.1128387,6.0145874,-0.026519775,0.1719513,0.3310852,18.148804,5.6488037,-51.57776,7.04183107,10.5504258,4707.621774,17.42010243,4.54765046,BLANK,0.520931008,0.239718433
4.70763E+12,0.2424469,2.3066254,5.787613,-0.041763306,0.16926575,0.33688354,18.148804,5.6488037,-51.57776,6.979120167,10.5504258,4707.62681,17.4565375,4.602708122,BLANK,0.520931008,0.244576688
4.70763E+12,0.49002075,2.5322723,5.789612,-0.06422424,0.1499939,0.3343048,18.02063,5.673218,-51.50299,6.919644758,10.5504258,4707.631845,17.48474213,4.656233616,BLANK,0.520931008,0.249063094
4.70764E+12,0.5916748,2.6398773,5.952179,-0.09664917,0.11502075,0.32118225,18.02063,5.673218,-51.50299,6.87127147,10.5504258,4707.63688,17.51153652,4.707082835,BLANK,0.520931008,0.252669051
4.70764E+12,0.5306549,2.7161865,5.998398,-0.1365509,0.06619263,0.29493713,18.02063,5.673218,-51.50299,6.827627797,10.5504258,4707.641916,17.5369912,4.755389593,BLANK,0.520931008,0.254782455
4.70765E+12,0.5081024,2.6831818,6.193802,-0.18029785,0.013885498,0.25975037,18.02063,5.673218,-51.50299,6.795936507,10.5504258,4707.646951,17.56117314,4.801281013,BLANK,0.520931008,0.255030851
4.70765E+12,0.4916687,2.5994873,6.3881683,-0.22709656,-0.032714844,0.22537231,17.260742,5.847168,-50.935364,6.775548097,10.5504258,4707.651987,17.54615158,4.853575363,BLANK,0.520931008,0.253547924
4.70766E+12,0.5252533,2.5085144,6.771576,-0.28735352,-0.073532104,0.19215393,17.260742,5.847168,-50.935364,6.775349492,10.5504258,4707.657022,17.5318811,4.903254995,BLANK,0.520931008,0.250478224
4.70766E+12,0.48150635,2.431427,7.3404694,-0.35453796,-0.103378296,0.16194153,17.260742,5.847168,-50.935364,6.803605487,10.5504258,4707.662057,17.51832415,4.950450645,BLANK,0.520931008,0.24605139
4.70767E+12,0.37983704,2.2455444,8.268814,-0.4223175,-0.12289429,0.13330078,17.260742,5.847168,-50.935364,6.876865913,10.5504258,4707.667093,17.50544504,4.995286513,BLANK,0.520931008,0.240413859
4.70767E+12,0.17427063,2.0477905,9.330399,-0.4827118,-0.13497925,0.10409546,17.118835,5.9921265,-50.238037,6.999542567,10.5504258,4707.672128,17.48611454,5.045128512,BLANK,0.520931008,0.233597939
4.70768E+12,-0.072647095,1.9118042,10.210449,-0.52345276,-0.1376648,0.08097839,17.118835,5.9921265,-50.238037,7.160087889,10.5504258,4707.677164,17.46775056,5.092478411,BLANK,0.520931008,0.225966962
4.70768E+12,-0.34976196,1.7006989,10.895004,-0.5303955,-0.12823486,0.06832886,17.118835,5.9921265,-50.238037,7.346833694,10.5504258,4707.682199,17.45030478,5.137460816,BLANK,0.520931008,0.218085057
4.70769E+12,-0.485672,1.6492004,11.179703,-0.4997406,-0.103500366,0.067108154,17.118835,5.9921265,-50.238037,7.53847716,10.5504258,4707.687234,17.43373129,5.1801941,BLANK,0.520931008,0.210536211
4.70769E+12,-0.5084381,1.7884521,11.32901,-0.4396057,-0.06904602,0.081954956,17.228699,6.248474,-50.631714,7.728003802,10.5504258,4707.69227,17.42347968,5.233608095,BLANK,0.520931008,0.204107149
4.7077E+12,-0.539032,1.8747711,11.400909,-0.35902405,-0.039031982,0.10644531,17.228699,6.248474,-50.631714,7.911649062,10.5504258,4707.697305,17.41374064,5.28435139,BLANK,0.520931008,0.199224057
4.7077E+12,-0.60835266,1.8848267,11.356354,-0.2681427,-0.02508545,0.13044739,17.228699,6.248474,-50.631714,8.083884309,10.5504258,4707.702341,17.40448856,5.332557521,BLANK,0.520931008,0.195785223
4.70771E+12,-0.50886536,1.983017,10.952164,-0.17304993,-0.024597168,0.15242004,17.228699,6.248474,-50.631714,8.227298293,10.5504258,4707.707376,17.39569908,5.378353345,BLANK,0.520931008,0.193616964
4.70771E+12,-0.2846222,2.1622772,10.246201,-0.08784485,-0.03060913,0.169693,17.434692,7.0739746,-51.887512,8.328243429,10.5504258,4707.712411,17.39764873,5.463134407,BLANK,0.520931008,0.192420766
4.70772E+12,-0.1026001,2.284546,9.542862,0.003067017,-0.0524292,0.18933105,17.434692,7.0739746,-51.887512,8.388974357,10.5504258,4707.717447,17.39950089,5.543676417,BLANK,0.520931008,0.19226628
4.70772E+12,0.026519775,2.4517975,9.086487,0.06474304,-0.09082031,0.1995697,17.434692,7.0739746,-51.887512,8.423849989,10.5504258,4707.722482,17.40126045,5.620191326,BLANK,0.520931008,0.192631451
4.70773E+12,0.23143005,2.5889587,8.725311,0.09291077,-0.15045166,0.19683838,16.775513,6.678772,-51.24359,8.43892304,10.5504258,4707.727518,17.36997308,5.67312036,BLANK,0.520931008,0.192841798
4.70773E+12,0.48283386,2.7378693,8.490616,0.088638306,-0.22070313,0.1859436,16.775513,6.678772,-51.24359,8.441507688,10.5504258,4707.732553,17.34025007,5.723402942,BLANK,0.520931008,0.192496888
4.70774E+12,0.6296387,2.8650208,8.506165,0.04827881,-0.2841797,0.16319275,16.775513,6.678772,-51.24359,8.444740553,10.5504258,4707.737588,17.31201322,5.771171395,BLANK,0.520931008,0.191031681
4.70774E+12,0.8622894,2.9216003,8.984802,-0.027755737,-0.3293152,0.13294983,16.775513,6.678772,-51.24359,8.471743626,10.5504258,4707.742624,17.28518821,5.816551425,BLANK,0.520931008,0.188127588
4.70775E+12,0.98350525,2.890747,9.559326,-0.15414429,-0.3475647,0.087509155,16.775513,6.390381,-51.148987,8.526122744,10.5504258,4707.747659,17.25970445,5.845242904,BLANK,0.520931008,0.183096667
4.70775E+12,1.0897522,2.7440948,10.309143,-0.29264832,-0.33955383,0.032470703,16.775513,6.390381,-51.148987,8.615273757,10.5504258,4707.752695,17.23549488,5.872499809,BLANK,0.520931008,0.175565369
4.70776E+12,1.166565,2.5600739,11.150772,-0.43063354,-0.31243896,-0.025680542,16.775513,6.390381,-51.148987,8.742048669,10.5504258,4707.75773,17.21249578,5.898393868,BLANK,0.520931008,0.165503073
4.70776E+12,1.1399841,2.2778625,11.867401,-0.5552521,-0.27519226,-0.08546448,16.775513,6.390381,-51.148987,8.898316286,10.5504258,4707.762765,17.19064664,5.922993225,BLANK,0.520931008,0.152954695
4.70777E+12,0.91244507,1.8658905,12.41449,-0.65371704,-0.2288208,-0.14682007,17.027283,6.5078735,-50.660706,9.074124972,10.5504258,4707.767801,17.18247846,5.952237239,BLANK,0.520931008,0.137965957
4.70777E+12,0.4664154,1.478302,13.049515,-0.7221832,-0.18016052,-0.20146179,17.027283,6.5078735,-50.660706,9.272894473,10.5504258,4707.772836,17.17471869,5.980019052,BLANK,0.520931008,0.12099457
4.70778E+12,0.018997192,1.2419434,13.922104,-0.77230835,-0.13186646,-0.25091553,17.027283,6.5078735,-50.660706,9.505354949,10.5504258,4707.777872,17.1673469,6.006411774,BLANK,0.520931008,0.102399065
4.70778E+12,-0.3619995,0.92559814,14.989716,-0.79519653,-0.09927368,-0.28230286,17.027283,6.5078735,-50.660706,9.779573002,10.5504258,4707.782907,17.16034371,6.03148486,BLANK,0.520931008,0.083163968
4.70779E+12,-0.6349182,0.60672,15.866135,-0.7879791,-0.07595825,-0.29309082,17.634583,8.566284,-50.07019,10.0839011,10.5504258,4707.787942,17.18405567,6.158224817,BLANK,0.520931008,0.064351229
4.70779E+12,-0.8279419,0.41348267,16.23439,-0.73703,-0.055496216,-0.28157043,17.634583,8.566284,-50.07019,10.39142555,10.5504258,4707.792978,17.20658204,6.278627776,BLANK,0.520931008,0.047055146
4.7078E+12,-0.9219208,0.28884888,15.959045,-0.6430359,-0.033081055,-0.25473022,17.634583,8.566284,-50.07019,10.66980652,10.5504258,4707.798013,17.22798209,6.393010588,BLANK,0.520931008,0.031965878
4.7078E+12,-0.8145447,0.3632965,15.2152405,-0.51794434,-0.009674072,-0.21430969,17.634583,8.566284,-50.07019,10.89707822,10.5504258,4707.803049,17.24831213,6.501674258,BLANK,0.520931008,0.019652099
4.70781E+12,-0.58084106,0.5193176,14.271988,-0.37623596,0.012298584,-0.15966797,16.984558,8.035278,-51.04828,11.06582371,10.5504258,4707.808084,17.23512443,6.578354445,BLANK,0.520931008,0.010686096
4.70781E+12,-0.23823547,0.6909332,13.361145,-0.26431274,0.031936646,-0.10809326,16.984558,8.035278,-51.04828,11.18058977,10.5504258,4707.813119,17.2225961,6.651200623,BLANK,0.520931008,0.004747128
4.70782E+12,0.13772583,0.871521,12.680695,-0.19030762,0.0471344,-0.06590271,16.984558,8.035278,-51.04828,11.25559503,10.5504258,4707.818155,17.2106942,6.720404492,BLANK,0.520931008,0.001214636
4.70782E+12,0.54756165,1.0537262,12.140228,-0.15611267,0.05126953,-0.0382843,16.984558,8.035278,-51.04828,11.29982668,10.5504258,4707.82319,17.19938739,6.786148167,BLANK,0.520931008,-0.000760311
4.70783E+12,1.0521088,1.2974854,11.692322,-0.1544342,0.04714966,-0.025817871,15.867615,8.006287,-51.956177,11.31945145,10.5504258,4707.828226,17.13279877,6.847155109,BLANK,0.520931008,-0.002013189
4.70783E+12,1.5402222,1.5523834,11.420151,-0.1763916,0.03590393,-0.031921387,15.867615,8.006287,-51.956177,11.32448643,10.5504258,4707.833261,17.06953958,6.905111704,BLANK,0.520931008,-0.003508599
4.70784E+12,1.9000397,1.7315521,11.281296,-0.21566772,0.01423645,-0.06352234,15.867615,8.006287,-51.956177,11.3223269,10.5504258,4707.838296,17.00944335,6.960170468,BLANK,0.520931008,-0.006509286
4.70784E+12,2.0375824,1.7687073,11.336014,-0.26786804,-0.008422852,-0.11769104,15.867615,8.006287,-51.956177,11.32301126,10.5504258,4707.843332,16.95235193,7.012476295,BLANK,0.520931008,-0.012068373
4.70785E+12,1.9462891,1.6302948,11.6527405,-0.3368988,-0.02218628,-0.19108582,16.088867,9.768677,-50.238037,11.33949772,10.5504258,4707.848367,16.90917769,7.15028633,BLANK,0.520931008,-0.021019246
4.70785E+12,1.7223969,1.4615784,12.024597,-0.4192505,-0.024353027,-0.27648926,16.088867,9.768677,-50.238037,11.37375268,10.5504258,4707.853403,16.86816215,7.281205864,BLANK,0.520931008,-0.033792746
4.70786E+12,1.4479828,1.2924347,12.259338,-0.5016937,-0.009628296,-0.35786438,16.088867,9.768677,-50.238037,11.41803195,10.5504258,4707.858438,16.8291974,7.40557942,BLANK,0.520931008,-0.049996328
4.70786E+12,1.2002869,0.9983368,12.484848,-0.5853119,0.024887085,-0.43478394,16.088867,9.768677,-50.238037,11.47137275,10.5504258,4707.863473,16.79218088,7.523734299,BLANK,0.520931008,-0.069235709
4.70787E+12,0.85112,0.5901489,12.794586,-0.6525421,0.056884766,-0.49957275,16.578674,9.416199,-50.852966,11.53753342,10.5504258,4707.868509,16.78150553,7.618357534,BLANK,0.520931008,-0.090752561
4.70787E+12,0.40151978,0.17501831,13.195389,-0.6909485,0.06286621,-0.5503235,16.578674,9.416199,-50.852966,11.62042619,10.5504258,4707.873544,16.77136396,7.708249608,BLANK,0.520931008,-0.113731108
4.70788E+12,-0.09637451,-0.16177368,13.580444,-0.69799805,0.039535522,-0.58099365,16.578674,9.416199,-50.852966,11.71842708,10.5504258,4707.87858,16.76172946,7.793647077,BLANK,0.520931008,-0.137094235
4.70788E+12,-0.40434265,-0.387146,13.93338,-0.6697235,-0.005462647,-0.590683,16.578674,9.416199,-50.852966,11.82917473,10.5504258,4707.883615,16.75257668,7.874774674,BLANK,0.520931008,-0.159773673
4.70789E+12,-0.45643616,-0.5006714,14.1701355,-0.6132202,-0.06274414,-0.57743835,17.144775,9.489441,-51.745605,11.94622277,10.5504258,4707.88865,16.7721866,7.95550799,BLANK,0.520931008,-0.180656907
4.70789E+12,-0.37332153,-0.49778748,14.198364,-0.52189636,-0.1335144,-0.5420685,17.144775,9.489441,-51.745605,12.05882983,10.5504258,4707.893686,16.79081602,8.03220464,BLANK,0.520931008,-0.198727487
4.7079E+12,-0.23457336,-0.41049194,13.81604,-0.41238403,-0.20185852,-0.4970398,17.144775,9.489441,-51.745605,12.14669034,10.5504258,4707.898721,16.80851397,8.105066458,BLANK,0.520931008,-0.213643102
4.7079E+12,-0.081710815,-0.2614441,13.211533,-0.30174255,-0.2482605,-0.44847107,17.144775,9.489441,-51.745605,12.19993247,10.5504258,4707.903757,16.82532702,8.174285185,BLANK,0.520931008,-0.225384501
4.70791E+12,0.29907227,-0.17622375,12.645187,-0.21118164,-0.26167297,-0.40649414,16.946411,10.284424,-51.745605,12.2221952,10.5504258,4707.908792,16.83138122,8.279792126,BLANK,0.520931008,-0.234439983
4.70791E+12,0.58229065,-0.17092896,12.548752,-0.15490723,-0.2479248,-0.37271118,16.946411,10.284424,-51.745605,12.23852304,10.5504258,4707.913827,16.83713271,8.38002372,BLANK,0.520931008,-0.241353542
4.70792E+12,0.719223,-0.044403076,12.306168,-0.13417053,-0.21903992,-0.35165405,16.946411,10.284424,-51.745605,12.24190529,10.5504258,4707.918863,16.84259662,8.475243734,BLANK,0.520931008,-0.246868568
4.70792E+12,0.80223083,0.12275696,11.779419,-0.1274414,-0.16911316,-0.34051514,16.946411,10.284424,-51.745605,12.21878097,10.5504258,4707.923898,16.84778734,8.565702747,BLANK,0.520931008,-0.251550896
4.70793E+12,0.94148254,0.19216919,11.142609,-0.12904358,-0.09440613,-0.33972168,16.539001,11.01532,-51.664734,12.16497237,10.5504258,4707.928934,16.83234803,8.68818361,BLANK,0.520931008,-0.255959436
4.70793E+12,1.0199585,0.17616272,10.592087,-0.1434784,-0.00289917,-0.34379578,16.539001,11.01532,-51.664734,12.08632811,10.5504258,4707.933969,16.81768067,8.804540429,BLANK,0.520931008,-0.260351253
4.70794E+12,0.9689789,0.16867065,10.122726,-0.17033386,0.08279419,-0.35551453,16.539001,11.01532,-51.664734,11.988148,10.5504258,4707.939004,16.80374669,8.915079408,BLANK,0.520931008,-0.265109417
4.70794E+12,0.8922272,0.14382935,9.743515,-0.20606995,0.15377808,-0.3685608,16.539001,11.01532,-51.664734,11.87591635,10.5504258,4707.94404,16.79050941,9.020091437,BLANK,0.520931008,-0.270281986
4.70795E+12,0.8517151,0.23376465,9.370438,-0.24557495,0.210495,-0.3837433,15.588379,11.660767,-51.90277,11.75064243,10.5504258,4707.949075,16.73040289,9.152125216,BLANK,0.520931008,-0.275955052
4.70795E+12,0.71829224,0.24681091,9.197647,-0.28883362,0.25863647,-0.3977661,15.588379,11.660767,-51.90277,11.62299266,10.5504258,4707.954111,16.67330169,9.277557305,BLANK,0.520931008,-0.282045604
4.70796E+12,0.5019989,0.17062378,8.988235,-0.3251648,0.28701782,-0.40615845,15.588379,11.660767,-51.90277,11.49125478,10.5504258,4707.959146,16.61905556,9.39671779,BLANK,0.520931008,-0.288251246
4.70796E+12,0.3839264,0.11312866,8.716202,-0.3481903,0.29815674,-0.4087677,15.058899,11.485291,-52.249146,11.35250214,10.5504258,4707.964181,16.54104773,9.50114645,BLANK,0.520931008,-0.294277069
4.70797E+12,0.2520752,0.07623291,8.662338,-0.36106873,0.29904175,-0.40344238,15.058899,11.485291,-52.249146,11.21799393,10.5504258,4707.969217,16.46694029,9.600353678,BLANK,0.520931008,-0.299735335
4.70797E+12,0.08418274,-0.002685547,8.664383,-0.3708191,0.28804016,-0.38972473,15.058899,11.485291,-52.249146,11.09031339,10.5504258,4707.974252,16.39653823,9.694600544,BLANK,0.520931008,-0.304234804
4.70798E+12,-0.027542114,0.049987793,8.569672,-0.37245178,0.26864624,-0.3705902,15.058899,11.485291,-52.249146,10.96428132,10.5504258,4707.979288,16.32965627,9.784135067,BLANK,0.520931008,-0.307552574
4.70798E+12,-0.08746338,0.044143677,8.427307,-0.3671112,0.24839783,-0.3386383,16.348267,11.853027,-50.98877,10.8374326,10.5504258,4707.984323,16.3305868,9.887579663,BLANK,0.520931008,-0.30910686
4.70799E+12,-0.097335815,0.06465149,8.266357,-0.35321045,0.2334137,-0.30026245,16.348267,11.853027,-50.98877,10.70887882,10.5504258,4707.989358,16.33147081,9.98585203,BLANK,0.520931008,-0.30866464
4.70799E+12,0.005401611,0.09989929,8.241837,-0.3407135,0.2193451,-0.25909424,16.348267,11.853027,-50.98877,10.58552673,10.5504258,4707.994394,16.33231062,10.07921078,BLANK,0.520931008,-0.30618612
4.708E+12,0.19247437,0.22521973,8.386948,-0.33035278,0.2052002,-0.21697998,16.348267,11.853027,-50.98877,10.47559779,10.5504258,4707.999429,16.33310844,10.16790159,BLANK,0.520931008,-0.301725813
4.708E+12,0.5349121,0.45169067,8.58107,-0.31730652,0.18603516,-0.1789856,17.367554,11.889648,-50.177002,10.3808714,10.5504258,4708.004465,16.38483072,10.25398891,BLANK,0.520931008,-0.295588802
4.70801E+12,0.88690186,0.74967957,8.52478,-0.29701233,0.159729,-0.14936829,17.367554,11.889648,-50.177002,10.28806683,10.5504258,4708.0095,16.43396688,10.33577186,BLANK,0.520931008,-0.288277777
4.70801E+12,0.9386444,0.8581848,8.313004,-0.25628662,0.12294006,-0.13421631,17.367554,11.889648,-50.177002,10.18931369,10.5504258,4708.014535,16.48064624,10.41346567,BLANK,0.520931008,-0.280574703
4.70802E+12,0.8548126,0.86486816,7.92659,-0.20602417,0.078933716,-0.13989258,17.367554,11.889648,-50.177002,10.07617751,10.5504258,4708.019571,16.52499163,10.48727479,BLANK,0.520931008,-0.273540597
4.70802E+12,0.8493347,0.89538574,7.5898438,-0.15922546,0.032058716,-0.15446472,17.289734,11.657715,-50.405884,9.951860821,10.5504258,4708.024606,16.56322875,10.5457968,BLANK,0.520931008,-0.267586803
4.70803E+12,0.878067,0.9061279,7.299942,-0.12315369,-0.018081665,-0.17036438,17.289734,11.657715,-50.405884,9.81926488,10.5504258,4708.029642,16.59955401,10.60139271,BLANK,0.520931008,-0.262725682
4.70803E+12,0.82440186,0.85858154,7.106888,-0.10101318,-0.074539185,-0.18270874,17.289734,11.657715,-50.405884,9.683646036,10.5504258,4708.034677,16.63406301,10.65420882,BLANK,0.520931008,-0.258724835
4.70804E+12,0.810318,0.82606506,7.096451,-0.095199585,-0.13049316,-0.1933136,17.289734,11.657715,-50.405884,9.554286284,10.5504258,4708.039712,16.66684656,10.70438413,BLANK,0.520931008,-0.255454273
4.70804E+12,0.8840637,0.86650085,7.432358,-0.114593506,-0.1695404,-0.20150757,17.601013,13.21106,-50.708008,9.44818987,10.5504258,4708.044748,16.71355488,10.82971793,BLANK,0.520931008,-0.252756938
4.70805E+12,0.92922974,0.9202423,7.800415,-0.15890503,-0.17869568,-0.20756531,17.601013,13.21106,-50.708008,9.365801127,10.5504258,4708.049783,16.75792779,10.94878503,BLANK,0.520931008,-0.250497357
4.70805E+12,0.9487457,0.9220581,8.041092,-0.21549988,-0.15579224,-0.2135315,17.601013,13.21106,-50.708008,9.29956567,10.5504258,4708.054819,16.80008205,11.06189878,BLANK,0.520931008,-0.248649064
4.70806E+12,0.92718506,0.9158478,8.155731,-0.27122498,-0.105773926,-0.22009277,17.601013,13.21106,-50.708008,9.242373937,10.5504258,4708.059854,16.84012859,11.16935684,BLANK,0.520931008,-0.247221249
4.70806E+12,0.81970215,0.8956909,8.114456,-0.3164673,-0.04548645,-0.2268982,18.225098,14.231873,-50.291443,9.18597804,10.5504258,4708.064889,16.90937706,11.32248265,BLANK,0.520931008,-0.246205097
4.70807E+12,0.6214447,0.7877655,8.058853,-0.34873962,0.012939453,-0.23399353,18.225098,14.231873,-50.291443,9.129621788,10.5504258,4708.069925,16.97516311,11.46795216,BLANK,0.520931008,-0.245594518
4.70807E+12,0.38105774,0.65586853,8.138672,-0.35987854,0.048217773,-0.23777771,18.225098,14.231873,-50.291443,9.080074299,10.5504258,4708.07496,17.03765986,11.60614821,BLANK,0.520931008,-0.245203678
4.70808E+12,0.15550232,0.54145813,8.284058,-0.3517456,0.05155945,-0.2338562,18.225098,14.231873,-50.291443,9.040273484,10.5504258,4708.079996,17.09703176,11.73743445,BLANK,0.520931008,-0.244636304
4.70809E+12,0.014877319,0.47705078,8.263672,-0.32585144,0.032424927,-0.22036743,18.492126,14.231873,-49.902344,9.00144341,10.5504258,4708.085031,17.16678647,11.86215637,BLANK,0.520931008,-0.24342286
4.70809E+12,0.091430664,0.5461731,8.086029,-0.28329468,0.00491333,-0.19619751,18.492126,14.231873,-49.902344,8.955672689,10.5504258,4708.090066,17.23305345,11.9806422,BLANK,0.520931008,-0.241061593
4.7081E+12,0.28601074,0.65800476,7.870987,-0.23606873,-0.021591187,-0.16386414,18.492126,14.231873,-49.902344,8.901438405,10.5504258,4708.095102,17.29600708,12.09320374,BLANK,0.520931008,-0.23720172
4.7081E+12,0.50479126,0.7777252,7.7663727,-0.1856842,-0.050735474,-0.12680054,18.492126,14.231873,-49.902344,8.844685119,10.5504258,4708.100137,17.35581302,12.20013721,BLANK,0.520931008,-0.231681661
4.70811E+12,0.6941681,0.9064636,7.639389,-0.13897705,-0.07800293,-0.09576416,16.539001,13.887024,-50.46234,8.784420313,10.5504258,4708.105173,17.31497242,12.28448155,BLANK,0.520931008,-0.224885786
4.70811E+12,0.8149719,1.0161743,7.264023,-0.09919739,-0.10002136,-0.076934814,16.539001,13.887024,-50.46234,8.708400448,10.5504258,4708.110208,17.27617385,12.36460867,BLANK,0.520931008,-0.217488238
4.70812E+12,0.9235687,1.1308136,6.782196,-0.063323975,-0.1184082,-0.06794739,16.539001,13.887024,-50.46234,8.612090225,10.5504258,4708.115243,17.23931521,12.44072944,BLANK,0.520931008,-0.210011195
4.70812E+12,1.0556793,1.2421112,6.539871,-0.03413391,-0.14152527,-0.065460205,16.539001,13.887024,-50.46234,8.508479264,10.5504258,4708.120279,17.2042995,12.51304416,BLANK,0.520931008,-0.202783646
4.70813E+12,1.052063,1.3368225,6.475815,-0.016815186,-0.17544556,-0.069869995,16.270447,14.183044,-50.74005,8.406846051,10.5504258,4708.125314,17.15760687,12.59654416,BLANK,0.520931008,-0.196137963
4.70813E+12,1.1622925,1.4012756,6.648224,-0.006027222,-0.22285461,-0.08506775,16.270447,14.183044,-50.74005,8.318914948,10.5504258,4708.13035,17.11324888,12.67586915,BLANK,0.520931008,-0.190584452
4.70814E+12,1.1577759,1.4333649,6.8123016,-6.71E-04,-0.26464844,-0.10282898,16.270447,14.183044,-50.74005,8.243584281,10.5504258,4708.135385,17.07110879,12.75122789,BLANK,0.520931008,-0.186196679
4.70814E+12,1.0052948,1.37323,6.8478546,0.004577637,-0.2939148,-0.12205505,16.270447,14.183044,-50.74005,8.173797797,10.5504258,4708.14042,17.0310757,12.8228187,BLANK,0.520931008,-0.182989597
4.70815E+12,0.9134369,1.3530273,6.9533997,0.013763428,-0.31011963,-0.14266968,16.603088,14.404297,-50.74005,8.112777892,10.5504258,4708.145456,17.00967631,12.90189261,BLANK,0.520931008,-0.180973602
4.70815E+12,0.71255493,1.3476563,7.156494,0.02355957,-0.3157196,-0.15861511,16.603088,14.404297,-50.74005,8.064963697,10.5504258,4708.150491,16.9893469,12.97701283,BLANK,0.520931008,-0.179855677
4.70816E+12,0.47784424,1.3028259,7.0290985,0.034622192,-0.30984497,-0.17115784,16.603088,14.404297,-50.74005,8.013170438,10.5504258,4708.155527,16.97003395,13.04837704,BLANK,0.520931008,-0.179420785
4.70816E+12,0.36177063,1.2105408,6.870636,0.045288086,-0.28694153,-0.17803955,16.603088,14.404297,-50.74005,7.956043716,10.5504258,4708.160562,16.95168665,13.11617304,BLANK,0.520931008,-0.179351723
4.70817E+12,0.2132721,1.1298981,7.054367,0.049057007,-0.24230957,-0.17332458,17.106628,14.656067,-50.001526,7.91095988,10.5504258,4708.165597,16.95943372,13.19316774,BLANK,0.520931008,-0.179050366
4.70817E+12,0.025115967,1.0475159,7.3643646,0.03878784,-0.18411255,-0.16371155,17.106628,14.656067,-50.001526,7.883630116,10.5504258,4708.170633,16.96679344,13.2663127,BLANK,0.520931008,-0.178283425
4.70818E+12,-0.12562561,1.052597,7.6672516,0.018356323,-0.11793518,-0.1486206,17.106628,14.656067,-50.001526,7.87281119,10.5504258,4708.175668,16.97378516,13.33580041,BLANK,0.520931008,-0.176800284
4.70818E+12,-0.10531616,1.0977478,7.725952,0.018356323,-0.11793518,-0.1486206,17.106628,14.656067,-50.001526,7.865468231,10.5504258,4708.180704,16.98042731,13.40181374,BLANK,0.520931008,-0.1753913
4.70819E+12,-0.058792114,1.1073151,8.067261,-0.001876831,0.0335083,-0.093048096,16.400146,14.619446,-50.354004,7.875557869,10.5504258,4708.185739,16.95141324,13.46269536,BLANK,0.520931008,-0.17127414
4.70819E+12,-0.003936768,1.2338867,8.255859,0.00453186,0.11740112,-0.05581665,16.400146,14.619446,-50.354004,7.894572926,10.5504258,4708.190774,16.92384988,13.52053289,BLANK,0.520931008,-0.165501265
4.7082E+12,0.1317749,1.3107147,8.103424,0.026931763,0.1860199,-0.024261475,16.400146,14.619446,-50.354004,7.905015479,10.5504258,4708.19581,16.89766468,13.57547854,BLANK,0.520931008,-0.158439276
4.7082E+12,0.3175354,1.4069214,7.727295,0.07003784,0.24179077,0.006790161,16.088867,14.575195,-50.572205,7.896129455,10.5504258,4708.200845,16.8572248,13.62546437,BLANK,0.520931008,-0.150177804
4.70821E+12,0.46810913,1.5652008,7.205963,0.11593628,0.28659058,0.030639648,16.088867,14.575195,-50.572205,7.861621133,10.5504258,4708.205881,16.81880691,13.6729509,BLANK,0.520931008,-0.141136931
4.70821E+12,0.6567688,1.707901,6.7864685,0.15211487,0.32330322,0.044769287,16.088867,14.575195,-50.572205,7.807863501,10.5504258,4708.210916,16.78230991,13.7180631,BLANK,0.520931008,-0.13184162
4.70822E+12,0.8023529,1.8396301,6.5398254,0.16798401,0.34913635,0.050994873,16.088867,14.575195,-50.572205,7.744461596,10.5504258,4708.215951,16.74763777,13.7609197,BLANK,0.520931008,-0.122699796
4.70822E+12,0.80033875,1.9112854,6.5388947,0.16847229,0.35430908,0.046020508,16.22467,14.985657,-50.97351,7.684183251,10.5504258,4708.220987,16.72148938,13.82215656,BLANK,0.520931008,-0.114263781
4.70823E+12,0.76979065,1.9695587,6.5898438,0.16061401,0.3308258,0.028778076,16.22467,14.985657,-50.97351,7.629466279,10.5504258,4708.226022,16.69664841,13.88033159,BLANK,0.520931008,-0.107111688
4.70823E+12,0.6816559,1.8937225,6.8481293,0.15185547,0.28511047,0.007217407,16.22467,14.985657,-50.97351,7.59039943,10.5504258,4708.231058,16.67304949,13.93559786,BLANK,0.520931008,-0.101395233
4.70824E+12,0.6151581,1.8756714,7.2875366,0.14477539,0.22854614,-0.015716553,16.22467,14.985657,-50.97351,7.575256288,10.5504258,4708.236093,16.65063052,13.98810081,BLANK,0.520931008,-0.097111299
4.70824E+12,0.468338,1.8389282,7.721695,0.14512634,0.1711731,-0.03327942,15.0177,14.399719,-49.32251,7.582578224,10.5504258,4708.241128,16.56898399,14.00868172,BLANK,0.520931008,-0.093919705
4.70825E+12,0.17945862,1.773941,7.928406,0.1552887,0.11817932,-0.044570923,15.0177,14.399719,-49.32251,7.599869613,10.5504258,4708.246164,16.49141979,14.02823359,BLANK,0.520931008,-0.091452266
4.70825E+12,-0.00579834,1.6910706,8.225311,0.17564392,0.07380676,-0.05026245,15.0177,14.399719,-49.32251,7.631141682,10.5504258,4708.251199,16.4177338,14.04680786,BLANK,0.520931008,-0.089392775
4.70826E+12,-0.053253174,1.667633,8.540039,0.19096375,0.047561646,-0.04663086,15.0177,14.399719,-49.32251,7.676586548,10.5504258,4708.256235,16.34773211,14.06445341,BLANK,0.520931008,-0.087254679
4.70826E+12,-0.041122437,1.6588287,8.854492,0.1985321,0.035507202,-0.03265381,14.715576,14.231873,-48.89679,7.73548182,10.5504258,4708.26127,16.26612431,14.07282439,BLANK,0.520931008,-0.084524636
4.70827E+12,0.019561768,1.6289978,9.207962,0.20358276,0.038635254,-0.010940552,14.715576,14.231873,-48.89679,7.809105829,10.5504258,4708.266305,16.18859689,14.08077682,BLANK,0.520931008,-0.080845432
4.70827E+12,0.124938965,1.631073,9.487793,0.20822144,0.05230713,0.013854981,14.715576,14.231873,-48.89679,7.893040188,10.5504258,4708.271341,16.11494585,14.08833163,BLANK,0.520931008,-0.076110411
4.70828E+12,0.255661,1.6773682,9.728455,0.21560669,0.071502686,0.038375854,14.715576,14.231873,-48.89679,7.984810929,10.5504258,4708.276376,16.04497735,14.0955087,BLANK,0.520931008,-0.070386098
4.70828E+12,0.3151245,1.711029,9.812988,0.23130798,0.09687805,0.06088257,16.046143,14.379883,-50.48523,8.076219782,10.5504258,4708.281412,16.04503564,14.10972742,BLANK,0.520931008,-0.063822664
4.70829E+12,0.26617432,1.7048187,9.839325,0.25242615,0.11946106,0.079437256,16.046143,14.379883,-50.48523,8.164375043,10.5504258,4708.286447,16.045091,14.1232352,BLANK,0.520931008,-0.056659668
4.70829E+12,0.17919922,1.6705017,9.852768,0.27372742,0.1359253,0.095840454,16.046143,14.379883,-50.48523,8.248794691,10.5504258,4708.291482,16.0451436,14.13606759,BLANK,0.520931008,-0.049034662
4.7083E+12,0.17367554,1.678833,9.88089,0.29623413,0.14855957,0.11230469,16.046143,14.379883,-50.48523,8.330399456,10.5504258,4708.296518,16.04519357,14.14825836,BLANK,0.520931008,-0.040967695
4.7083E+12,0.25808716,1.7178497,9.810333,0.31559753,0.15693665,0.1285553,16.11023,14.552307,-50.593567,8.404396134,10.5504258,4708.301553,16.0484454,14.16846079,BLANK,0.520931008,-0.032491545
4.70831E+12,0.4185028,1.7768402,9.580841,0.32867432,0.16293335,0.14549255,16.11023,14.552307,-50.593567,8.463218377,10.5504258,4708.306589,16.05153463,14.1876531,BLANK,0.520931008,-0.02359234
4.70831E+12,0.64682007,1.8196564,9.51091,0.3339386,0.16429138,0.16177368,16.11023,14.552307,-50.593567,8.515602958,10.5504258,4708.311624,16.05446939,14.20588579,BLANK,0.520931008,-0.014324039
4.70832E+12,0.83277893,1.9129639,9.707764,0.32159424,0.16018677,0.17019653,16.11023,14.552307,-50.593567,8.57521101,10.5504258,4708.316659,16.05725742,14.22320685,BLANK,0.520931008,-0.005098011
4.70832E+12,0.99942017,1.9894409,10.092926,0.2891388,0.15472412,0.17190552,16.088867,14.575195,-50.572205,8.65109676,10.5504258,4708.321695,16.0588379,14.24080626,BLANK,0.520931008,0.003752166
4.70833E+12,1.0965729,2.0098114,10.429977,0.2471466,0.15065002,0.16436768,16.088867,14.575195,-50.572205,8.740040772,10.5504258,4708.32673,16.06033936,14.2575257,BLANK,0.520931008,0.011782942
4.70833E+12,1.036438,1.9757538,10.780472,0.20741272,0.14619446,0.14628601,16.088867,14.575195,-50.572205,8.842062333,10.5504258,4708.331766,16.06176574,14.27340916,BLANK,0.520931008,0.018508095
