timestamp,accel_x,accel_y,accel_z,gyro_x,gyro_y,gyro_z,mag_x,mag_y,mag_z,Apply Exponentially Weighted Smoothing to accel data,smooth_accel_x,smooth_accel_y,smooth_accel_z,Alpha,
8.05392E+12,-0.8831787,1.5082397,9.011398,-0.40220642,0.077041626,-0.19204712,,,,0,-0.8831787,1.5082397,9.011398,0.05,11.04681279
8.05393E+12,-0.8596344,1.4969177,9.453842,0,0,0,0,0,0,0,-0.882001485,1.5076736,9.0335202,,2.146813
8.05393E+12,-0.83891296,1.5108337,9.847977,-0.39190674,-0.110809326,-0.12762451,0,0,0,0,-0.879847059,1.507831605,9.07424304,,2.146813
8.05394E+12,-0.7720337,1.5320892,10.237396,-0.3499756,-0.206604,-0.09901428,0,0,0,0,-0.874456391,1.509044485,9.132400688,,2.146813
8.05394E+12,-0.6839752,1.5334015,10.469177,-0.28562927,-0.30274963,-0.07376099,0,0,0,0,-0.864932331,1.510262336,9.199239504,,2.146813
8.05395E+12,-0.5698395,1.5628967,10.542496,-0.20578003,-0.3798523,-0.051254272,17.042542,-22.981262,-46.696472,0,-0.85017769,1.512894054,9.266402328,,2.146813
8.05395E+12,-0.4427948,1.6008148,10.506271,-0.12515259,-0.4249115,-0.030838013,17.042542,-22.981262,-46.696472,0,-0.829808545,1.517290091,9.328395762,,2.146813
8.05396E+12,-0.29522705,1.6530457,10.525314,-0.05317688,-0.44158936,-0.01576233,17.042542,-22.981262,-46.696472,0,-0.80307947,1.524077871,9.388241674,,2.146813
8.05396E+12,-0.20280457,1.7217102,10.41246,1.53E-05,-0.43232727,-0.007354736,17.042542,-22.981262,-46.696472,0,-0.773065725,1.533959488,9.43945259,,2.146813
8.05397E+12,-0.18074036,1.7626495,10.265701,0.0332489,-0.39883423,-0.004882813,17.385864,-22.398376,-47.373962,0,-0.743449457,1.545393989,9.480765011,,2.146813
8.05397E+12,-0.17501831,1.758728,10.013504,0.051971436,-0.3382721,-0.007019043,17.385864,-22.398376,-47.373962,0,-0.7150279,1.556060689,9.50740196,,2.146813
8.05398E+12,-0.22473145,1.7465363,9.848373,0.04899597,-0.2582245,-0.010345459,17.385864,-22.398376,-47.373962,0,-0.690513077,1.56558447,9.524450512,,2.146813
8.05398E+12,-0.2800598,1.7424469,9.723907,0.02810669,-0.16807556,-0.012741089,17.385864,-22.398376,-47.373962,0,-0.669990413,1.574427591,9.534423337,,2.146813
8.05399E+12,-0.33137512,1.7545166,9.666809,-0.010513306,-0.07249451,-0.014938355,17.61322,-22.398376,-47.595215,0,-0.653059649,1.583432042,9.54104262,,2.146813
8.05399E+12,-0.36558533,1.7702332,9.627258,-0.055603027,0.018676758,-0.016174316,17.61322,-22.398376,-47.595215,0,-0.638685933,1.5927721,9.545353389,,2.146813
8.054E+12,-0.42549133,1.7578278,9.65741,-0.09609985,0.094192505,-0.014541626,17.61322,-22.398376,-47.595215,0,-0.628026203,1.601024885,9.550956219,,2.146813
8.054E+12,-0.4374237,1.8215485,9.710388,-0.1352539,0.16459656,-0.013214111,17.61322,-22.398376,-47.595215,0,-0.618496078,1.612051065,9.558927808,,2.146813
8.05401E+12,-0.42860413,1.8254089,9.697159,-0.1605072,0.21446228,-0.01008606,17.738342,-21.520996,-47.473145,0,-0.60900148,1.622718957,9.565839368,,2.146813
8.05401E+12,-0.4001007,1.7736816,9.656677,-0.17114258,0.2429657,-0.005767822,17.738342,-21.520996,-47.473145,0,-0.598556441,1.630267089,9.57038125,,2.146813
8.05402E+12,-0.41374207,1.7349701,9.5243225,-0.16722107,0.25224304,-0.00352478,17.738342,-21.520996,-47.473145,0,-0.589315723,1.63550224,9.568078312,,2.146813
8.05402E+12,-0.39105225,1.7372437,9.447128,-0.16722107,0.25224304,-0.00352478,17.738342,-21.520996,-47.473145,0,-0.579402549,1.640589313,9.562030796,,2.146813
8.05403E+12,-0.35739136,1.77388,9.475662,-0.1326294,0.23054504,0.00378418,16.896057,-21.57898,-47.055054,0,-0.56830199,1.647253847,9.557712357,,2.146813
8.05403E+12,-0.29377747,1.8266754,9.355621,-0.10903931,0.20117188,0.008514404,16.896057,-21.57898,-47.055054,0,-0.554575764,1.656224925,9.547607789,,2.146813
8.05404E+12,-0.30464172,1.8654785,9.150391,-0.08392334,0.16690063,0.012863159,16.896057,-21.57898,-47.055054,0,-0.542079061,1.666687604,9.527746949,,2.146813
8.05404E+12,-0.28115845,1.8531647,9.071808,-0.057876587,0.12583923,0.01701355,16.583252,-21.711731,-46.925354,0,-0.529033031,1.676011458,9.504950002,,2.146813
8.05405E+12,-0.245224,1.9297333,8.981522,-0.034225464,0.0793457,0.01878357,16.583252,-21.711731,-46.925354,0,-0.514842579,1.68869755,9.478778602,,2.146813
8.05405E+12,-0.19859314,1.9507294,8.752197,-0.014633179,0.02961731,0.017715454,16.583252,-21.711731,-46.925354,0,-0.499030107,1.701799143,9.442449522,,2.146813
8.05406E+12,-0.16789246,2.0205994,8.614548,-0.002105713,-0.019241333,0.016098022,16.583252,-21.711731,-46.925354,0,-0.482473225,1.717739156,9.401054446,,2.146813
8.05406E+12,-0.17100525,2.014267,8.6094055,0.003509522,-0.07763672,0.008468628,16.583252,-21.711731,-47.192383,0,-0.466899826,1.732565548,9.361471998,,2.146813
8.05407E+12,-0.19384766,2.0135956,8.657455,0.006698608,-0.13664246,-0.001373291,16.583252,-21.711731,-47.192383,0,-0.453247218,1.746617051,9.326271148,,2.146813
8.05407E+12,-0.18836975,1.9554901,8.725494,0.00428772,-0.19024658,-0.011749268,16.583252,-21.711731,-47.192383,0,-0.440003344,1.757060703,9.296232291,,2.146813
8.05408E+12,-0.20347595,1.8810883,8.865036,-0.002822876,-0.23808289,-0.023727417,16.583252,-21.711731,-47.192383,0,-0.428176975,1.763262083,9.274672476,,2.146813
8.05408E+12,-0.2722168,1.8397522,9.066559,-0.011077881,-0.27781677,-0.034057617,15.892029,-21.298218,-46.855164,0,-0.420378966,1.767086589,9.264266803,,2.146813
8.05409E+12,-0.30439758,1.8084259,9.238464,-0.018676758,-0.3115387,-0.03981018,15.892029,-21.298218,-46.855164,0,-0.414579897,1.769153554,9.262976662,,2.146813
8.05409E+12,-0.29795837,1.7694092,9.418564,-0.02619934,-0.33700562,-0.04411316,15.892029,-21.298218,-46.855164,0,-0.40874882,1.769166337,9.270756029,,2.146813
8.0541E+12,-0.30342102,1.7147522,9.544174,-0.03024292,-0.35131836,-0.045837402,15.892029,-21.298218,-46.855164,0,-0.40348243,1.76644563,9.284426928,,2.146813
8.0541E+12,-0.2843933,1.6171722,9.716888,-0.034057617,-0.35295105,-0.04475403,15.725708,-21.195984,-46.757507,0,-0.397527974,1.758981958,9.306049982,,2.146813
8.05411E+12,-0.2501068,1.5673065,9.974304,-0.03515625,-0.34243774,-0.042770386,15.725708,-21.195984,-46.757507,0,-0.390156915,1.749398185,9.339462682,,2.146813
8.05411E+12,-0.2136383,1.5428925,10.178711,-0.034500122,-0.32395935,-0.03831482,15.725708,-21.195984,-46.757507,0,-0.381330984,1.739072901,9.381425098,,2.146813
8.05412E+12,-0.21873474,1.5780487,10.270828,-0.02734375,-0.29830933,-0.03186035,15.725708,-21.195984,-46.757507,0,-0.373201172,1.731021691,9.425895243,,2.146813
8.05412E+12,-0.23078918,1.6338043,10.272614,-0.011077881,-0.2642975,-0.024490356,15.725708,-22.691345,-47.340393,0,-0.366080573,1.726160821,9.468231181,,2.146813
8.05413E+12,-0.28147888,1.6585846,10.164749,0.008056641,-0.2260437,-0.01789856,15.725708,-22.691345,-47.340393,0,-0.361850488,1.72278201,9.503057072,,2.146813
8.05413E+12,-0.33702087,1.7376709,9.95369,0.027145386,-0.18345642,-0.013565064,15.725708,-22.691345,-47.340393,0,-0.360609007,1.723526455,9.525588719,,2.146813
8.05414E+12,-0.35087585,1.7910919,9.7747345,0.042785645,-0.14038086,-0.010299683,15.725708,-22.691345,-47.340393,0,-0.360122349,1.726904727,9.538046008,,2.146813
8.05414E+12,-0.38580322,1.8371735,9.676514,0.05142212,-0.10173035,-0.006576538,14.97345,-21.862793,-48.161316,0,-0.361406393,1.732418166,9.544969407,,2.146813
8.05415E+12,-0.43901062,1.8662262,9.70285,0.052139282,-0.06854248,-0.004577637,14.97345,-21.862793,-48.161316,0,-0.365286604,1.739108568,9.552863437,,2.146813
8.05415E+12,-0.42404175,1.8497772,9.646408,0.047424316,-0.04447937,-0.00390625,14.97345,-21.862793,-48.161316,0,-0.368224361,1.744641999,9.557540665,,2.146813
8.05416E+12,-0.37701416,1.838913,9.595093,0.04333496,-0.024810791,-0.001449585,14.97345,-21.862793,-48.161316,0,-0.368663851,1.749355549,9.559418282,,2.146813
8.05416E+12,-0.3697815,1.8063965,9.6089325,0.038650513,-0.00730896,0.004638672,14.866638,-21.711731,-48.2666,0,-0.368719734,1.752207597,9.561893993,,2.146813
8.05417E+12,-0.32806396,1.8422699,9.603165,0.032470703,0.006164551,0.010101318,14.866638,-21.711731,-48.2666,0,-0.366686945,1.756710712,9.563957543,,2.146813
8.05417E+12,-0.3350067,1.8699341,9.469666,0.027618408,0.014099121,0.013565064,14.866638,-21.711731,-48.2666,0,-0.365102933,1.762371881,9.559242966,,2.146813
8.05418E+12,-0.37963867,1.8527069,9.337479,0.023880005,0.020080566,0.016174316,14.866638,-21.711731,-48.2666,0,-0.36582972,1.766888632,9.548154768,,2.146813
8.05418E+12,-0.36976624,1.8765869,9.24408,0.019744873,0.024047852,0.020812988,16.15448,-21.711731,-47.950745,0,-0.366026546,1.772373546,9.532951029,,2.146813
8.05419E+12,-0.31437683,1.9460297,9.089706,0.011169434,0.026504517,0.023803711,16.15448,-21.711731,-47.950745,0,-0.36344406,1.781056353,9.510788778,,2.146813
8.05419E+12,-0.24905396,2.0279388,9.0346985,-3.51E-04,0.028686523,0.029418945,16.15448,-21.711731,-47.950745,0,-0.357724555,1.793400476,9.486984264,,2.146813
8.0542E+12,-0.14979553,2.1300964,8.990784,-0.016799927,0.02734375,0.035095215,16.15448,-21.711731,-47.950745,0,-0.347328104,1.810235272,9.462174251,,2.146813
8.0542E+12,-0.0786438,2.2053528,8.877228,-0.035751343,0.016036987,0.036010742,15.591431,-20.741272,-46.665955,0,-0.333893888,1.829991148,9.432926938,,2.146813
8.05421E+12,-0.034805298,2.2584229,8.775391,-0.054840088,-0.002624512,0.030471802,15.591431,-20.741272,-46.665955,0,-0.318939459,1.851412736,9.400050141,,2.146813
8.05421E+12,-0.015365601,2.2700043,8.807785,-0.07157898,-0.027191162,0.014221191,15.591431,-20.741272,-46.665955,0,-0.303760766,1.872342314,9.370436884,,2.146813
8.05422E+12,-0.061325073,2.180603,8.98201,-0.08404541,-0.060287476,-0.001312256,15.591431,-20.741272,-46.665955,0,-0.291638981,1.887755348,9.35101554,,2.146813
8.05422E+12,-0.12445068,2.114975,9.205582,-0.0990448,-0.0970459,-0.017562866,15.553284,-20.681763,-46.591187,0,-0.283279566,1.899116331,9.343743863,,2.146813
8.05423E+12,-0.042297363,2.053955,9.437912,-0.10820007,-0.13760376,-0.03303528,15.553284,-20.681763,-46.591187,0,-0.271230456,1.906858264,9.34845227,,2.146813
8.05423E+12,-0.080322266,1.946228,9.682678,-0.10644531,-0.16921997,-0.044281006,15.553284,-20.681763,-46.591187,0,-0.261685047,1.908826751,9.365163556,,2.146813
8.05424E+12,-0.06037903,1.9129639,9.702759,-0.097457886,-0.1920929,-0.054885864,15.553284,-20.681763,-46.591187,0,-0.251619746,1.909033609,9.382043329,,2.146813
8.05424E+12,-0.1355133,1.8493652,9.796188,-0.082229614,-0.19714355,-0.061416626,15.553284,-20.681763,-46.591187,0,-0.245814424,1.906050188,9.402750562,,2.146813
8.05425E+12,-0.13490295,1.8501434,9.962784,-0.0690918,-0.19241333,-0.06666565,15.553284,-20.681763,-46.591187,0,-0.24026885,1.903254849,9.430752234,,2.146813
8.05425E+12,-0.13000488,1.8286438,10.068924,-0.056137085,-0.18197632,-0.0687561,15.553284,-20.681763,-46.591187,0,-0.234755651,1.899524296,9.462660822,,2.146813
8.05426E+12,-0.14247131,1.7689819,10.16069,-0.043945313,-0.16395569,-0.06941223,16.900635,-23.068237,-46.59424,0,-0.230141434,1.892997177,9.497562281,,2.146813
8.05426E+12,-0.092666626,1.7345581,10.046112,-0.029464722,-0.14022827,-0.06617737,16.900635,-23.068237,-46.59424,0,-0.223267694,1.885075223,9.524989767,,2.146813
8.05427E+12,-0.079330444,1.7047272,9.866379,-0.009155273,-0.108169556,-0.059280396,16.900635,-23.068237,-46.59424,0,-0.216070831,1.876057822,9.542059229,,2.146813
8.05427E+12,-0.16062927,1.6940155,9.75386,0.010971069,-0.07733154,-0.054031372,16.900635,-23.068237,-46.59424,0,-0.213298753,1.866955705,9.552649267,,2.146813
8.05428E+12,-0.25274658,1.6937561,9.688126,0.027435303,-0.050598145,-0.0496521,14.523315,-21.368408,-46.925354,0,-0.215271145,1.858295725,9.559423104,,2.146813
8.05428E+12,-0.27752686,1.7293091,9.6471405,0.038757324,-0.028671265,-0.044799805,14.523315,-21.368408,-46.925354,0,-0.21838393,1.851846394,9.563808974,,2.146813
8.05429E+12,-0.22961426,1.7453003,9.576248,0.047332764,-0.016189575,-0.037384033,14.523315,-21.368408,-46.925354,0,-0.218945447,1.846519089,9.564430925,,2.146813
8.05429E+12,-0.13319397,1.8793793,9.444229,0.055664063,-0.009338379,-0.026748657,14.523315,-21.368408,-46.925354,0,-0.214657873,1.8481621,9.558420829,,2.146813
8.0543E+12,0.021591187,1.9905396,9.424881,0.06309509,-0.003509522,-0.014587402,14.637756,-21.408081,-46.905518,0,-0.20284542,1.855280975,9.551743837,,2.146813
8.0543E+12,0.122406006,2.0864716,9.400543,0.062927246,0.001953125,-0.008789063,14.637756,-21.408081,-46.905518,0,-0.186582849,1.866840506,9.544183796,,2.146813
8.05431E+12,0.13041687,2.0836182,9.369385,0.055648804,0.008514404,-0.014968872,14.637756,-21.408081,-46.905518,0,-0.170732863,1.877679391,9.535443856,,2.146813
8.05431E+12,0.15635681,2.0687256,9.314835,0.04397583,0.020309448,-0.028503418,14.637756,-21.408081,-46.905518,0,-0.154378379,1.887231701,9.524413413,,2.146813
8.05432E+12,0.21647644,2.0329285,9.282852,0.030059814,0.039611816,-0.04446411,16.490173,-21.98944,-46.707153,0,-0.135835638,1.894516541,9.512335342,,2.146813
8.05432E+12,0.18736267,1.9526825,9.277405,0.012481689,0.06430054,-0.05973816,16.490173,-21.98944,-46.707153,0,-0.119675723,1.897424839,9.500588825,,2.146813
8.05433E+12,0.10273743,1.8886566,9.188004,-0.010238647,0.09529114,-0.074661255,16.490173,-21.98944,-46.707153,0,-0.108555065,1.896986427,9.484959584,,2.146813
8.05433E+12,0.08988953,1.8632813,9.153198,-0.03363037,0.13092041,-0.087387085,16.490173,-21.98944,-46.707153,0,-0.098632835,1.895301171,9.468371505,,2.146813
8.05434E+12,0.04159546,1.8730316,9.291534,-0.055664063,0.16726685,-0.09680176,15.382385,-21.195984,-48.098755,0,-0.091621421,1.894187692,9.459529629,,2.146813
8.05434E+12,0.004928589,1.8545074,9.523788,-0.07376099,0.19526672,-0.10231018,15.382385,-21.195984,-48.098755,0,-0.08679392,1.892203678,9.462742548,,2.146813
8.05435E+12,0.007354736,1.7949524,9.715958,-0.08380127,0.2131958,-0.10494995,15.382385,-21.195984,-48.098755,0,-0.082086487,1.887341114,9.475403321,,2.146813
8.05435E+12,0.016479492,1.7529755,9.755814,-0.07727051,0.22846985,-0.10494995,15.382385,-21.195984,-48.098755,0,-0.077158188,1.880622833,9.489423855,,2.146813
8.05436E+12,0.02015686,1.738327,9.678421,-0.04815674,0.24668884,-0.10269165,15.42511,-21.282959,-48.18268,0,-0.072292436,1.873508041,9.498873712,,2.146813
8.05436E+12,-0.03515625,1.7252197,9.565491,-0.005203247,0.26148987,-0.09794617,15.42511,-21.282959,-48.18268,0,-0.070435627,1.866093624,9.502204576,,2.146813
8.05437E+12,-0.13282776,1.7100067,9.41304,0.043670654,0.26953125,-0.09272766,15.42511,-21.282959,-48.18268,0,-0.073555233,1.858289278,9.497746347,,2.146813
8.05437E+12,-0.19519043,1.6937561,9.151871,0.09390259,0.27088928,-0.08493042,15.42511,-21.282959,-48.18268,0,-0.079636993,1.850062619,9.48045258,,2.146813
8.05438E+12,-0.18681335,1.7028961,8.844986,0.13787842,0.27182007,-0.07293701,15.675354,-21.533203,-48.52295,0,-0.084995811,1.842704293,9.448679251,,2.146813
8.05439E+12,-0.1499176,1.7246704,8.568253,0.17248535,0.2740326,-0.055725098,15.675354,-21.533203,-48.52295,0,-0.0882419,1.836802599,9.404657939,,2.146813
8.05439E+12,-0.07733154,1.8560791,8.389648,0.19197083,0.27478027,-0.035003662,15.675354,-21.533203,-48.52295,0,-0.087696382,1.837766424,9.353907442,,2.146813
8.0544E+12,-0.040161133,1.9647064,8.2543335,0.19677734,0.27241516,-0.013442993,15.675354,-21.533203,-48.52295,0,-0.08531962,1.844113422,9.298928745,,2.146813
8.0544E+12,-0.11192322,2.1059723,8.264175,0.19058228,0.26104736,0.003555298,15.382385,-19.47937,-47.0932,0,-0.0866498,1.857206366,9.247191057,,2.146813
8.05441E+12,-0.15803528,2.164505,8.298691,0.17848206,0.24012756,0.018051147,15.382385,-19.47937,-47.0932,0,-0.090219074,1.872571298,9.199766054,,2.146813
8.05441E+12,-0.24958801,2.199997,8.368362,0.1669159,0.21211243,0.028244019,15.382385,-19.47937,-47.0932,0,-0.098187521,1.888942583,9.158195852,,2.146813
8.05442E+12,-0.28704834,2.3865356,8.6480255,0.15267944,0.17218018,0.039352417,15.382385,-19.47937,-47.0932,0,-0.107630562,1.913822234,9.132687334,,2.146813
8.05442E+12,-0.07136536,2.6307526,8.754959,0.14006042,0.12930298,0.049545288,15.615845,-19.98291,-46.99402,0,-0.105817302,1.949668752,9.113800917,,2.146813
8.05443E+12,0.18127441,2.7631836,8.552612,0.13270569,0.10064697,0.061264038,15.615845,-19.98291,-46.99402,0,-0.091462716,1.990344495,9.085741472,,2.146813
8.05443E+12,0.36480713,2.8802032,8.35939,0.12998962,0.09555054,0.07131958,15.615845,-19.98291,-46.99402,0,-0.068649224,2.03483743,9.049423898,,2.146813
8.05444E+12,0.46229553,2.9061584,8.39061,0.121917725,0.105148315,0.070373535,15.615845,-19.98291,-46.99402,0,-0.042101986,2.078403478,9.016483203,,2.146813
8.05444E+12,0.529068,2.979782,8.5327,0.10151672,0.10601807,0.062683105,16.508484,-21.835327,-46.446228,0,-0.013543487,2.123472405,8.992294043,,2.146813
8.05445E+12,0.5686035,3.081009,8.734894,0.07092285,0.095687866,0.04307556,16.508484,-21.835327,-46.446228,0,0.015563863,2.171349234,8.979424041,,2.146813
8.05445E+12,0.47990417,3.093216,8.723099,0.047805786,0.09005737,0.01499939,16.508484,-21.835327,-46.446228,0,0.038780878,2.217442573,8.966607789,,2.146813
8.05446E+12,0.38786316,3.0156403,8.724747,0.025878906,0.09768677,-0.015563965,16.23993,-21.025085,-45.9198,0,0.056234992,2.257352459,8.954514749,,2.146813
8.05446E+12,0.2516327,2.8913116,8.703125,0.002822876,0.11653137,-0.041763306,16.23993,-21.025085,-45.9198,0,0.066004877,2.289050416,8.941945262,,2.146813
8.05447E+12,0.15890503,2.8439636,8.649063,-0.02230835,0.14147949,-0.06518555,16.23993,-21.025085,-45.9198,0,0.070649885,2.316796075,8.927301149,,2.146813
8.05447E+12,0.046875,2.8140259,8.616455,-0.04664612,0.16273499,-0.07829285,16.23993,-21.025085,-45.9198,0,0.069461141,2.341657566,8.911758841,,2.146813
8.05448E+12,0.011444092,2.8695526,8.620712,-0.07435608,0.1794281,-0.08276367,16.511536,-21.025085,-46.0968,0,0.066560288,2.368052318,8.897206499,,2.146813
8.05448E+12,-0.03590393,2.9330292,8.619247,-0.095703125,0.18515015,-0.08439636,16.511536,-21.025085,-46.0968,0,0.061437077,2.396301162,8.883308524,,2.146813
8.05449E+12,6.71E-04,2.98143,8.584702,-0.112213135,0.17567444,-0.08255005,16.511536,-21.025085,-46.0968,0,0.058398793,2.425557604,8.868378198,,2.146813
8.05449E+12,0.07936096,3.079773,8.450531,-0.12272644,0.15310669,-0.083099365,16.511536,-21.025085,-46.0968,0,0.059446901,2.458268374,8.847485838,,2.146813
8.0545E+12,0.18417358,3.1444244,8.399948,-0.13174438,0.11288452,-0.087127686,17.463684,-21.025085,-46.684265,0,0.065683235,2.492576175,8.825108946,,2.146813
8.0545E+12,0.29640198,3.2249756,8.353348,-0.14312744,0.056930542,-0.09487915,17.463684,-21.025085,-46.684265,0,0.077219172,2.529196146,8.801520899,,2.146813
8.05451E+12,0.38046265,3.261444,8.454239,-0.16365051,-0.019638062,-0.10787964,17.463684,-21.025085,-46.684265,0,0.092381346,2.565808539,8.784156804,,2.146813
8.05451E+12,0.4723816,3.2399292,8.543091,-0.19024658,-0.09635925,-0.12515259,17.463684,-21.025085,-46.684265,0,0.111381359,2.599514572,8.772103514,,2.146813
8.05452E+12,0.5157471,3.2222748,8.711868,-0.22294617,-0.16859436,-0.14538574,17.956543,-21.025085,-46.925354,0,0.131599646,2.630652584,8.769091738,,2.146813
8.05452E+12,0.5495148,3.1826935,8.915329,-0.26226807,-0.23173523,-0.1676178,17.956543,-21.025085,-46.925354,0,0.152495404,2.658254629,8.776403601,,2.146813
8.05453E+12,0.54255676,3.1248322,9.129318,-0.30282593,-0.2799225,-0.18969727,17.956543,-21.025085,-46.925354,0,0.171998472,2.681583508,8.794049321,,2.146813
8.05453E+12,0.5216675,3.0814056,9.4075775,-0.34320068,-0.3177185,-0.21095276,17.956543,-21.025085,-46.925354,0,0.189481923,2.701574613,8.82472573,,2.146813
8.05454E+12,0.41244507,3.009674,9.741119,-0.384552,-0.34710693,-0.23320007,17.610168,-21.255493,-47.14966,0,0.20063008,2.716979582,8.870545394,,2.146813
8.05454E+12,0.27201843,2.9189453,10.084183,-0.41603088,-0.36653137,-0.25245667,17.610168,-21.255493,-47.14966,0,0.204199498,2.727077868,8.931227274,,2.146813
8.05455E+12,0.1269989,2.8046875,10.411194,-0.43754578,-0.3746338,-0.27053833,17.610168,-21.255493,-47.14966,0,0.200339468,2.730958349,9.00522561,,2.146813
8.05455E+12,-0.04925537,2.6524506,10.655533,-0.44544983,-0.36825562,-0.28553772,17.610168,-21.255493,-47.14966,0,0.187859726,2.727032962,9.08774098,,2.146813
8.05456E+12,-0.21131897,2.5006714,10.833466,-0.43673706,-0.35021973,-0.29284668,16.744995,-21.530151,-47.299194,0,0.167900791,2.715714884,9.175027231,,2.146813
8.05456E+12,-0.30012512,2.4448242,10.888092,-0.40979004,-0.3223114,-0.29153442,16.744995,-21.530151,-47.299194,0,0.144499496,2.70217035,9.260680469,,2.146813
8.05457E+12,-0.3209381,2.4071503,10.89447,-0.36375427,-0.2848053,-0.28074646,16.744995,-21.530151,-47.299194,0,0.121227616,2.687419347,9.342369946,,2.146813
8.05457E+12,-0.26930237,2.4205322,10.770859,-0.307724,-0.24432373,-0.2625122,16.744995,-21.530151,-47.299194,0,0.101701117,2.67407499,9.413794398,,2.146813
8.05458E+12,-0.19439697,2.4782257,10.51387,-0.24382019,-0.2052002,-0.23925781,16.412354,-21.195984,-46.757507,0,0.086896212,2.664282525,9.468798179,,2.146813
8.05458E+12,-0.058944702,2.5155334,10.142227,-0.17576599,-0.16926575,-0.21536255,16.412354,-21.195984,-46.757507,0,0.079604167,2.656845069,9.50246962,,2.146813
8.05459E+12,0.071014404,2.5944824,9.604416,-0.11079407,-0.13471985,-0.19412231,16.412354,-21.195984,-46.757507,0,0.079174678,2.653726936,9.507566939,,2.146813
8.05459E+12,0.12150574,2.6972198,8.99408,-0.048217773,-0.098480225,-0.17660522,16.412354,-21.195984,-46.757507,0,0.081291232,2.655901579,9.481892592,,2.146813
8.0546E+12,0.17703247,2.811264,8.378387,0.002212524,-0.06956482,-0.16622925,16.551208,-20.779419,-47.572327,0,0.086078293,2.6636697,9.426717312,,2.146813
8.0546E+12,0.21463013,2.9385223,7.917816,0.033477783,-0.055786133,-0.16003418,16.551208,-20.779419,-47.572327,0,0.092505885,2.67741233,9.351272246,,2.146813
8.05461E+12,0.27911377,3.0641022,7.7473145,0.044906616,-0.055419922,-0.15609741,16.551208,-20.779419,-47.572327,0,0.101836279,2.696746823,9.271074359,,2.146813
8.05461E+12,0.3301239,3.1182098,7.5855103,0.041763306,-0.06730652,-0.15203857,16.551208,-20.779419,-47.572327,0,0.113250661,2.717819972,9.186796156,,2.146813
8.05462E+12,0.3736267,3.206894,7.50589,0.028060913,-0.08477783,-0.15090942,16.394043,-20.239258,-48.135376,0,0.126269462,2.742273674,9.102750848,,2.146813
8.05462E+12,0.3719635,3.2512665,7.509094,0.006759644,-0.1083374,-0.154953,16.394043,-20.239258,-48.135376,0,0.138554164,2.767723315,9.023068006,,2.146813
8.05463E+12,0.3081665,3.2088165,7.4603424,-0.014663696,-0.13369751,-0.16479492,16.394043,-20.239258,-48.135376,0,0.147034781,2.789777974,8.944931726,,2.146813
8.05463E+12,0.20620728,3.1725464,7.490082,-0.034576416,-0.16152954,-0.1775055,16.394043,-20.239258,-48.135376,0,0.149993406,2.808916395,8.872189239,,2.146813
8.05464E+12,0.16557312,3.0637054,7.520111,-0.05429077,-0.18817139,-0.18882751,15.896606,-20.33844,-47.261047,0,0.150772392,2.821655846,8.804585327,,2.146813
8.05464E+12,0.1164093,3.0171814,7.6284943,-0.074920654,-0.21070862,-0.19602966,15.896606,-20.33844,-47.261047,0,0.149054237,2.831432123,8.745780776,,2.146813
8.05465E+12,0.052963257,2.932602,7.7407837,-0.09613037,-0.22669983,-0.19683838,15.896606,-20.33844,-47.261047,0,0.144249688,2.836490617,8.695530922,,2.146813
8.05465E+12,-0.006164551,2.900406,7.9203033,-0.11936951,-0.23620605,-0.19293213,15.896606,-20.33844,-47.261047,0,0.136728976,2.839686386,8.656769541,,2.146813
8.05466E+12,-0.04396057,2.813614,8.1772,-0.14039612,-0.23887634,-0.1855011,16.384888,-20.013428,-47.10083,0,0.127694499,2.838382767,8.632791064,,2.146813
8.05466E+12,-0.06387329,2.7685547,8.448425,-0.15498352,-0.23898315,-0.17576599,16.384888,-20.013428,-47.10083,0,0.118116109,2.834891364,8.623572761,,2.146813
8.05467E+12,-0.030456543,2.7341766,8.596313,-0.15963745,-0.24005127,-0.16281128,16.384888,-20.013428,-47.10083,0,0.110687477,2.829855626,8.622209773,,2.146813
8.05467E+12,-0.003372192,2.6912994,8.743027,-0.15963745,-0.24005127,-0.16281128,16.384888,-20.013428,-47.10083,0,0.104984493,2.822927814,8.628250634,,2.146813
8.05468E+12,0.029251099,2.6669006,8.934616,-0.13269043,-0.2390747,-0.12705994,16.506958,-19.903564,-47.006226,0,0.101197824,2.815126454,8.643568902,,2.146813
8.05468E+12,0.038406372,2.568985,9.048279,-0.1078949,-0.23750305,-0.10699463,16.506958,-19.903564,-47.006226,0,0.098058251,2.802819381,8.663804407,,2.146813
8.05469E+12,0.037109375,2.6150665,8.98436,-0.07873535,-0.22955322,-0.08534241,16.506958,-19.903564,-47.006226,0,0.095010807,2.793431737,8.679832187,,2.146813
8.05469E+12,0.024383545,2.647049,8.811768,-0.05029297,-0.2157135,-0.06286621,16.06903,-20.166016,-47.0932,0,0.091479444,2.7861126,8.686428978,,2.146813
8.0547E+12,0.17344666,2.7745667,8.752914,-0.025527954,-0.1972351,-0.037826538,16.06903,-20.166016,-47.0932,0,0.095577805,2.785535305,8.689753229,,2.146813
8.0547E+12,0.40359497,2.8796234,8.667831,-0.004806519,-0.18130493,-0.014465332,16.06903,-20.166016,-47.0932,0,0.110978663,2.79023971,8.688657117,,2.146813
8.05471E+12,0.6097717,3.0944977,8.724976,0.009719849,-0.17514038,0.004058838,16.06903,-20.166016,-47.0932,0,0.135918315,2.805452609,8.690473061,,2.146813
8.05471E+12,0.77490234,3.1865234,8.726212,0.027633667,-0.17958069,0.014007568,15.881348,-19.979858,-47.82257,0,0.167867516,2.824506149,8.692260008,,2.146813
8.05472E+12,0.8353729,3.2310486,8.674652,0.046966553,-0.1927185,0.014297485,15.881348,-19.979858,-47.82257,0,0.201242785,2.844833271,8.691379608,,2.146813
8.05472E+12,0.8892822,3.220932,8.520172,0.06855774,-0.20425415,0.00668335,15.881348,-19.979858,-47.82257,0,0.235644756,2.863638208,8.682819228,,2.146813
8.05473E+12,0.8359375,3.212387,8.301712,0.08811951,-0.20907593,-0.00479126,15.881348,-19.979858,-47.82257,0,0.265659393,2.881075647,8.663763866,,2.146813
8.05473E+12,0.81344604,3.1985626,8.146118,0.101882935,-0.20907593,-0.016784668,16.297913,-19.441223,-48.806763,0,0.293048726,2.896949995,8.637881573,,2.146813
8.05474E+12,0.7745209,3.2481232,7.991379,0.10624695,-0.20799255,-0.026794434,16.297913,-19.441223,-48.806763,0,0.317122334,2.914508655,8.605556444,,2.146813
8.05474E+12,0.74082947,3.2869568,7.926117,0.09805298,-0.20373535,-0.038772583,16.297913,-19.441223,-48.806763,0,0.338307691,2.933131063,8.571584472,,2.146813
8.05475E+12,0.69447327,3.3470306,7.898758,0.081954956,-0.20275879,-0.047470093,16.297913,-19.441223,-48.806763,0,0.35611597,2.953826039,8.537943148,,2.146813
8.05475E+12,0.64338684,3.3472595,7.9580994,0.06402588,-0.20851135,-0.054031372,16.755676,-19.136047,-49.10431,0,0.370479514,2.973497712,8.508950961,,2.146813
8.05476E+12,0.5895996,3.3173523,8.060684,0.04763794,-0.22007751,-0.06059265,16.755676,-19.136047,-49.10431,0,0.381435518,2.990690442,8.486537613,,2.146813
8.05476E+12,0.53518677,3.3283691,8.188385,0.036209106,-0.23469543,-0.06565857,16.755676,-19.136047,-49.10431,0,0.389123081,3.007574375,8.471629982,,2.146813
8.05477E+12,0.4796753,3.2999878,8.378128,0.028244019,-0.2482605,-0.06802368,16.755676,-19.136047,-49.10431,0,0.393650692,3.022195046,8.466954883,,2.146813
8.05477E+12,0.4488678,3.3167114,8.6671295,0.020523071,-0.25749207,-0.06713867,15.913391,-19.346619,-48.69232,0,0.396411547,3.036920864,8.476963614,,2.146813
8.05478E+12,0.49423218,3.3446655,9.00235,0.010681152,-0.26301575,-0.0617218,15.913391,-19.346619,-48.69232,0,0.401302579,3.052308095,8.503232933,,2.146813
8.05478E+12,0.57670593,3.387207,9.340363,0.004745483,-0.261261,-0.05404663,15.913391,-19.346619,-48.69232,0,0.410072746,3.069053041,8.545089437,,2.146813
8.05479E+12,0.63749695,3.4395447,9.562119,0.005477905,-0.24946594,-0.045822144,15.913391,-19.346619,-48.69232,0,0.421443956,3.087577624,8.595940915,,2.146813
8.05479E+12,0.740921,3.4935913,9.757523,0.012588501,-0.230896,-0.037994385,15.060425,-19.587708,-48.9563,0,0.437417809,3.107878307,8.654020019,,2.146813
8.0548E+12,0.80288696,3.5690765,9.9904175,0.02772522,-0.20536804,-0.032699585,15.060425,-19.587708,-48.9563,0,0.455691266,3.130938217,8.720839893,,2.146813
8.0548E+12,0.78645325,3.649887,10.159744,0.046936035,-0.17532349,-0.031936646,15.060425,-19.587708,-48.9563,0,0.472229365,3.156885656,8.792785098,,2.146813
8.05481E+12,0.722702,3.6568909,10.273651,0.067596436,-0.14234924,-0.035079956,15.060425,-19.587708,-48.9563,0,0.484752997,3.181885918,8.866828394,,2.146813
8.05481E+12,0.5830078,3.574829,10.305145,0.08728027,-0.10324097,-0.04084778,14.866638,-19.651794,-49.272156,0,0.489665737,3.201533073,8.938744224,,2.146813
8.05482E+12,0.532547,3.5135803,10.177322,0.10731506,-0.05734253,-0.0473938,14.866638,-19.651794,-49.272156,0,0.4918098,3.217135434,9.000673113,,2.146813
8.05482E+12,0.47763062,3.436325,10.006134,0.12284851,-0.012359619,-0.050827026,14.866638,-19.651794,-49.272156,0,0.491100841,3.228094912,9.050946157,,2.146813
8.05483E+12,0.48887634,3.4519653,9.938156,0.13293457,0.03302002,-0.047027588,14.866638,-19.651794,-49.272156,0,0.490989616,3.239288432,9.095306649,,2.146813
8.05483E+12,0.53700256,3.5412445,9.843063,0.13430786,0.066848755,-0.037109375,15.100098,-19.184875,-48.58551,0,0.493290263,3.254386235,9.132694467,,2.146813
8.05484E+12,0.52285767,3.6298218,9.844742,0.12989807,0.084747314,-0.027008057,15.100098,-19.184875,-48.58551,0,0.494768634,3.273158013,9.168296843,,2.146813
8.05484E+12,0.49900818,3.6621094,9.869064,0.12185669,0.09213257,-0.01802063,15.100098,-19.184875,-48.58551,0,0.494980611,3.292605583,9.203335201,,2.146813
8.05485E+12,0.51600647,3.646576,9.872787,0.106918335,0.092315674,-0.012786865,15.100098,-19.184875,-48.58551,0,0.496031904,3.310304103,9.236807791,,2.146813
8.05485E+12,0.566803,3.6807861,9.928436,0.09060669,0.0861969,-0.010360718,14.138794,-19.560242,-47.68524,0,0.499570459,3.328828203,9.271389202,,2.146813
8.05486E+12,0.5823517,3.750763,10.073425,0.06947327,0.07354736,-0.008987427,14.138794,-19.560242,-47.68524,0,0.503709521,3.349924943,9.311490992,,2.146813
8.05486E+12,0.56803894,3.815155,10.314789,0.04093933,0.058441162,-0.008850098,14.138794,-19.560242,-47.68524,0,0.506925992,3.373186446,9.361655892,,2.146813
8.05487E+12,0.6026459,3.8493652,10.723373,0.005508423,0.04411316,-0.011795044,14.138794,-19.560242,-47.68524,0,0.511711987,3.396995384,9.429741747,,2.146813
8.05487E+12,0.6324463,3.7080994,11.163849,-0.03465271,0.032913208,-0.019104004,13.6657715,-19.822693,-47.428894,0,0.517748703,3.412550584,9.51644711,,2.146813
8.05488E+12,0.6048889,3.5524902,11.54277,-0.06893921,0.029205322,-0.027801514,13.6657715,-19.822693,-47.428894,0,0.522105713,3.419547565,9.617763254,,2.146813
8.05488E+12,0.516922,3.3070374,12.10228,-0.0945282,0.032058716,-0.03591919,13.6657715,-19.822693,-47.428894,0,0.521846527,3.413922057,9.741989092,,2.146813
8.05489E+12,0.34532166,3.2005463,12.423843,-0.110580444,0.042129517,-0.039718628,14.700317,-20.341492,-47.932434,0,0.513020284,3.403253269,9.876081787,,2.146813
8.05489E+12,0.33546448,3.1795502,12.856033,-0.11225891,0.05857849,-0.031906128,14.700317,-20.341492,-47.932434,0,0.504142494,3.392068116,10.02507935,,2.146813
8.0549E+12,0.16133118,3.128296,13.171677,-0.09933472,0.07557678,-0.019882202,14.700317,-20.341492,-47.932434,0,0.487001928,3.37887951,10.18240923,,2.146813
8.0549E+12,0.059249878,3.0514374,13.448013,-0.06867981,0.0848999,-0.006408691,14.700317,-20.341492,-47.932434,0,0.465614325,3.362507404,10.34568942,,2.146813
8.05491E+12,-0.066207886,3.0056763,13.512161,-0.024047852,0.08824158,0.011199951,16.345215,-18.94226,-47.587585,0,0.439023215,3.344665849,10.504013,,2.146813
8.05491E+12,-0.15032959,2.995041,13.395386,0.03138733,0.09236145,0.030929565,16.345215,-18.94226,-47.587585,0,0.409555575,3.327184607,10.64858165,,2.146813
8.05492E+12,-0.19641113,2.970337,13.214249,0.09388733,0.09687805,0.05718994,16.345215,-18.94226,-47.587585,0,0.379257239,3.309342226,10.77686502,,2.146813
8.05492E+12,-0.26794434,2.963623,13.136337,0.14587402,0.09996033,0.07807922,16.345215,-18.94226,-47.587585,0,0.34689716,3.292056265,10.89483861,,2.146813
8.05493E+12,-0.23725891,2.9893036,13.082565,0.18247986,0.10279846,0.099624634,16.755676,-18.449402,-47.428894,0,0.317689357,3.276918632,11.00422493,,2.146813
8.05493E+12,-0.18904114,3.0236664,12.933212,0.20458984,0.1103363,0.11831665,16.755676,-18.449402,-47.428894,0,0.292352832,3.26425602,11.10067429,,2.146813
8.05494E+12,-0.11643982,3.1121216,12.805801,0.21723938,0.12705994,0.13168335,16.755676,-18.449402,-47.428894,0,0.271913199,3.256649299,11.18593062,,2.146813
8.05494E+12,-0.10626221,3.2389374,12.571106,0.21839905,0.15074158,0.1379242,16.755676,-18.449402,-47.428894,0,0.253004429,3.255763704,11.25518939,,2.146813
8.05495E+12,-0.106796265,3.31044,12.320496,0.20274353,0.18721008,0.1377716,14.920044,-19.720459,-48.391724,0,0.235014394,3.258497519,11.30845472,,2.146813
8.05495E+12,-0.1356659,3.3567047,12.015198,0.17402649,0.22895813,0.12857056,14.920044,-19.720459,-48.391724,0,0.21648038,3.263407878,11.34379189,,2.146813
8.05496E+12,-0.2002716,3.2993927,11.736206,0.13502502,0.2680664,0.11073303,14.920044,-19.720459,-48.391724,0,0.195642781,3.265207119,11.36341259,,2.146813
8.05496E+12,-0.2748413,3.173355,11.601746,0.09156799,0.29597473,0.08621216,14.920044,-19.720459,-48.391724,0,0.172118577,3.260614513,11.37532926,,2.146813
8.05497E+12,-0.3917694,2.983078,11.49678,0.045272827,0.31617737,0.05999756,15.519714,-19.85321,-47.90497,0,0.143924178,3.246737688,11.3814018,,2.146813
8.05497E+12,-0.5061798,2.8118896,11.379913,-0.008239746,0.33836365,0.03627014,15.519714,-19.85321,-47.90497,0,0.111418979,3.224995283,11.38132736,,2.146813
8.05498E+12,-0.59539795,2.7848358,11.248001,-0.070114136,0.36631775,0.018173218,15.519714,-19.85321,-47.90497,0,0.076078132,3.202987309,11.37466104,,2.146813
8.05498E+12,-0.6818085,2.7761383,11.232956,-0.1260376,0.3873291,0.008575439,15.519714,-19.85321,-47.90497,0,0.038183801,3.181644859,11.36757579,,2.146813
8.05499E+12,-0.7779999,2.676773,11.245026,-0.17538452,0.38890076,0.002044678,15.725708,-19.822693,-47.76306,0,-0.002625384,3.156401266,11.3614483,,2.146813
8.05499E+12,-0.84381104,2.5271149,11.323502,-0.2130127,0.3640747,-0.004013062,15.725708,-19.822693,-47.76306,0,-0.044684667,3.124936947,11.35955098,,2.146813
8.055E+12,-0.8721924,2.3213959,11.467361,-0.23316956,0.3158722,-0.008255005,15.725708,-19.822693,-47.76306,0,-0.086060054,3.084759895,11.36494149,,2.146813
8.055E+12,-0.90382385,2.1069336,11.551865,-0.23872375,0.24757385,-0.009368897,15.725708,-19.822693,-47.76306,0,-0.126948244,3.03586858,11.37428766,,2.146813
8.05501E+12,-0.917923,1.9841919,11.548386,-0.23402405,0.17050171,-0.007019043,15.725708,-20.741272,-48.658752,0,-0.166496981,2.983284746,11.38299258,,2.146813
8.05501E+12,-0.91352844,1.9056396,11.571808,-0.22999573,0.10194397,-0.001220703,15.725708,-20.741272,-48.658752,0,-0.203848554,2.929402489,11.39243335,,2.146813
8.05502E+12,-0.8436432,1.8269653,11.624069,-0.23371887,0.045898438,0.006439209,15.725708,-20.741272,-48.658752,0,-0.235838287,2.874280629,11.40401513,,2.146813
8.05502E+12,-0.67367554,1.7671356,11.736206,-0.24813843,0.004562378,0.013397217,15.725708,-20.741272,-48.658752,0,-0.257730149,2.818923378,11.42062468,,2.146813
8.05503E+12,-0.45321655,1.7233582,11.868149,-0.26654053,-0.0259552,0.01965332,15.725708,-19.619751,-47.564697,0,-0.267504469,2.764145119,11.44300089,,2.146813
8.05503E+12,-0.35035706,1.6690063,12.023621,-0.28240967,-0.056793213,0.025650024,15.725708,-19.619751,-47.564697,0,-0.271647099,2.709388178,11.4720319,,2.146813
8.05504E+12,-0.4111328,1.539978,12.159485,-0.28755188,-0.08970642,0.02520752,15.725708,-19.619751,-47.564697,0,-0.278621384,2.650917669,11.50640455,,2.146813
8.05504E+12,-0.51849365,1.3074799,12.280914,-0.28082275,-0.11785889,0.020355225,15.725708,-19.619751,-47.564697,0,-0.290614997,2.583745781,11.54513002,,2.146813
8.05505E+12,-0.5615845,1.1503448,12.345413,-0.26538086,-0.13275146,0.01651001,15.725708,-19.47937,-47.428894,0,-0.304163472,2.512075732,11.58514417,,2.146813
8.05505E+12,-0.6263733,1.0014191,12.260223,-0.24209595,-0.13124084,0.019866943,15.725708,-19.47937,-47.428894,0,-0.320273964,2.4365429,11.61889811,,2.146813
8.05506E+12,-0.7032776,0.87016296,12.136276,-0.21520996,-0.109451294,0.02897644,15.725708,-19.47937,-47.428894,0,-0.339424146,2.358223903,11.64476701,,2.146813
8.05506E+12,-0.84114075,0.7508087,11.958084,-0.17744446,-0.069366455,0.04560852,15.725708,-19.47937,-47.428894,0,-0.364509976,2.277853143,11.66043286,,2.146813
8.05507E+12,-0.92848206,0.6411743,11.594101,-0.13424683,-0.02104187,0.06781006,15.229797,-20.306396,-48.554993,0,-0.39270858,2.196019201,11.65711627,,2.146813
8.05507E+12,-0.9824524,0.562027,11.1073,-0.08558655,0.03125,0.09649658,15.229797,-20.306396,-48.554993,0,-0.422195771,2.114319591,11.62962545,,2.146813
8.05508E+12,-0.9373627,0.59147644,10.611649,-0.03942871,0.08258057,0.12974548,15.229797,-20.306396,-48.554993,0,-0.447954117,2.038177433,11.57872663,,2.146813
8.05508E+12,-0.8684845,0.5926666,10.083969,-0.002319336,0.13891602,0.16267395,15.229797,-20.306396,-48.554993,0,-0.468980637,1.965901892,11.50398875,,2.146813
8.05509E+12,-0.71751404,0.6426239,9.526642,0.021057129,0.19378662,0.19325256,14.213562,-19.343567,-47.628784,0,-0.481407307,1.899737992,11.40512141,,2.146813
8.05509E+12,-0.61753845,0.71055603,9.050171,0.03529358,0.2574463,0.22497559,14.213562,-19.343567,-47.628784,0,-0.488213864,1.840278894,11.28737389,,2.146813
8.0551E+12,-0.50627136,0.7555847,8.454712,0.037887573,0.31150818,0.24934387,14.213562,-19.343567,-47.628784,0,-0.489116739,1.786044184,11.1457408,,2.146813
8.05511E+12,-0.45643616,0.86772156,7.9166718,0.036743164,0.35302734,0.2679596,14.213562,-19.343567,-47.628784,0,-0.48748271,1.740128053,10.98428735,,2.146813
8.05511E+12,-0.36351013,0.9947357,7.3935547,0.028030396,0.3751831,0.28085327,14.213562,-19.343567,-47.628784,0,-0.481284081,1.702858435,10.80475071,,2.146813
8.05512E+12,-0.26643372,1.0398865,7.021103,0.028030396,0.3751831,0.28085327,14.213562,-19.343567,-47.628784,0,-0.470541563,1.669709839,10.61556833,,2.146813
8.05512E+12,-0.3130951,1.185791,6.5855103,0.004806519,0.3527527,0.2923584,14.213562,-19.343567,-47.628784,0,-0.46266924,1.645513897,10.41406543,,2.146813
8.05513E+12,-0.2731018,1.1812897,6.327942,-0.02029419,0.30693054,0.28831482,14.18457,-19.311523,-47.599792,0,-0.453190868,1.622302687,10.20975926,,2.146813
8.05513E+12,-0.3362732,1.2588348,6.1840363,-0.048355103,0.25151062,0.2795105,14.18457,-19.311523,-47.599792,0,-0.447344984,1.604129292,10.00847311,,2.146813
8.05514E+12,-0.26924133,1.3109283,6.19606,-0.07977295,0.18411255,0.2703247,14.18457,-19.311523,-47.599792,0,-0.438439802,1.589469243,9.817852452,,2.146813
8.05514E+12,-0.32518005,1.3449707,6.198944,-0.11097717,0.10270691,0.25772095,14.18457,-19.311523,-47.599792,0,-0.432776814,1.577244316,9.636907029,,2.146813
8.05515E+12,-0.38056946,1.2260132,6.371002,-0.14343262,0.015136719,0.24281311,14.877319,-19.685364,-48.254395,0,-0.430166446,1.55968276,9.473611778,,2.146813
8.05515E+12,-0.45732117,1.065506,6.585388,-0.17037964,-0.068878174,0.22982788,14.877319,-19.685364,-48.254395,0,-0.431524182,1.534973922,9.329200589,,2.146813
8.05516E+12,-0.41275024,0.9952698,6.823944,-0.1993103,-0.15486145,0.21977234,14.877319,-19.685364,-48.254395,0,-0.430585485,1.507988716,9.20393776,,2.146813
8.05516E+12,-0.37660217,0.9854431,7.0437927,-0.22143555,-0.22563171,0.21681213,14.877319,-19.685364,-48.254395,0,-0.42788632,1.481861435,9.095930507,,2.146813
8.05517E+12,-0.29588318,1.0419464,7.3246,-0.24082947,-0.2866211,0.21884155,15.209961,-20.681763,-47.93091,0,-0.421286163,1.459865683,9.007363981,,2.146813
8.05517E+12,-0.27833557,1.0792084,7.6700745,-0.25808716,-0.33831787,0.22322083,15.209961,-20.681763,-47.93091,0,-0.414138633,1.440832819,8.940499507,,2.146813
8.05518E+12,-0.22964478,1.0383606,8.0816345,-0.27095032,-0.37869263,0.2268219,15.209961,-20.681763,-47.93091,0,-0.40491394,1.420709208,8.897556257,,2.146813
8.05518E+12,-0.15046692,0.9671478,8.501434,-0.2805786,-0.40698242,0.22827148,15.209961,-20.681763,-47.93091,0,-0.392191589,1.398031138,8.877750144,,2.146813
8.05519E+12,-0.053756714,0.9536896,8.846451,-0.28489685,-0.41825867,0.22869873,15.209961,-20.655823,-47.982788,0,-0.375269846,1.375814061,8.876185187,,2.146813
8.05519E+12,0.057495117,1.0041656,9.102386,-0.28053284,-0.40623474,0.23066711,15.209961,-20.655823,-47.982788,0,-0.353631597,1.357231638,8.887495227,,2.146813
8.0552E+12,0.18417358,1.0591888,9.281982,-0.27285767,-0.3722229,0.23069763,15.209961,-20.655823,-47.982788,0,-0.326741339,1.342329496,8.907219566,,2.146813
8.0552E+12,0.3043518,1.1493683,9.377762,-0.2637329,-0.31692505,0.22680664,15.209961,-20.655823,-47.982788,0,-0.295186682,1.332681436,8.930746688,,2.146813
8.05521E+12,0.42240906,1.2710419,9.339645,-0.25268555,-0.24533081,0.22172546,15.174866,-20.132446,-48.60077,0,-0.259306895,1.329599459,8.951191603,,2.146813
8.05521E+12,0.4316864,1.3256531,9.239761,-0.24023438,-0.15821838,0.21063232,15.174866,-20.132446,-48.60077,0,-0.22475723,1.329402141,8.965620073,,2.146813
8.05522E+12,0.31137085,1.2537384,9.068817,-0.22549438,-0.05960083,0.19137573,15.174866,-20.132446,-48.60077,0,-0.197950826,1.325618954,8.97077992,,2.146813
8.05522E+12,0.15148926,1.1854248,8.776459,-0.21142578,0.03668213,0.17019653,15.174866,-20.132446,-48.60077,0,-0.180478822,1.318609247,8.961063874,,2.146813
8.05523E+12,-0.010513306,1.1309509,8.45639,-0.19769287,0.1299591,0.15245056,14.866638,-18.278503,-48.60077,0,-0.171980546,1.309226329,8.93583018,,2.146813
8.05523E+12,-0.16012573,1.0833893,8.094666,-0.18287659,0.21606445,0.14160156,14.866638,-18.278503,-48.60077,0,-0.171387805,1.297934478,8.893771971,,2.146813
8.05524E+12,-0.2517395,1.0761108,7.6844482,-0.1676178,0.28459167,0.13917542,14.866638,-18.278503,-48.60077,0,-0.17540539,1.286843294,8.833305782,,2.146813
8.05524E+12,-0.2617035,1.1064453,7.2426147,-0.14706421,0.33587646,0.14419556,14.866638,-18.278503,-48.60077,0,-0.179720295,1.277823394,8.753771228,,2.146813
8.05525E+12,-0.2733307,1.1503448,6.7994995,-0.11773682,0.36090088,0.15490723,14.866638,-18.278503,-48.69995,0,-0.184400815,1.271449464,8.656057642,,2.146813
8.05525E+12,-0.25875854,1.1805573,6.4518433,-0.08305359,0.36187744,0.16915894,14.866638,-18.278503,-48.69995,0,-0.188118702,1.266904856,8.545846925,,2.146813
8.05526E+12,-0.20965576,1.2921448,6.090225,-0.044052124,0.34202576,0.18441772,14.866638,-18.278503,-48.69995,0,-0.189195555,1.268166853,8.423065829,,2.146813
8.05526E+12,-0.13160706,1.4053955,5.7016754,-0.003616333,0.3056183,0.20050049,14.866638,-18.278503,-48.69995,0,-0.18631613,1.275028286,8.286996307,,2.146813
8.05527E+12,-0.023345947,1.5457153,5.363785,0.03388977,0.25686646,0.2130127,14.923096,-18.56842,-49.272156,0,-0.178167621,1.288562636,8.140835742,,2.146813
8.05527E+12,0.118881226,1.6660461,5.0569305,0.06968689,0.18713379,0.2230072,14.923096,-18.56842,-49.272156,0,-0.163315178,1.30743681,7.98664048,,2.146813
8.05528E+12,0.19100952,1.7659912,4.960434,0.09710693,0.10847473,0.22850037,14.923096,-18.56842,-49.272156,0,-0.145598943,1.330364529,7.835330156,,2.146813
8.05528E+12,0.32615662,1.8385773,5.0225983,0.113464355,0.027893066,0.22669983,14.923096,-18.56842,-49.272156,0,-0.122011165,1.355775168,7.694693563,,2.146813
8.05529E+12,0.43955994,1.9574127,5.2127533,0.114990234,-0.042404175,0.22164917,15.209961,-19.995117,-49.272156,0,-0.09393261,1.385857044,7.57059655,,2.146813
8.05529E+12,0.5039978,2.0840607,5.4464874,0.106414795,-0.09703064,0.21052551,15.209961,-19.995117,-49.272156,0,-0.06403609,1.420767227,7.464391092,,2.146813
8.0553E+12,0.57733154,2.1128082,5.7705994,0.09007263,-0.12826538,0.19570923,15.209961,-19.995117,-49.272156,0,-0.031967708,1.455369276,7.379701508,,2.146813
8.0553E+12,0.56536865,2.1448822,6.0200806,0.06755066,-0.13812256,0.17547607,15.209961,-19.995117,-49.272156,0,-0.00210089,1.489844922,7.311720462,,2.146813
8.05531E+12,0.49742126,2.1421356,6.2984924,0.044509888,-0.1214447,0.15464783,15.135193,-19.551086,-49.053955,0,0.022875217,1.522459456,7.261059059,,2.146813
8.05531E+12,0.46707153,2.181961,6.5115356,0.023590088,-0.08731079,0.13591003,15.135193,-19.551086,-49.053955,0,0.045085033,1.555434533,7.223582886,,2.146813
8.05532E+12,0.3179474,2.1703033,6.6788483,0.006072998,-0.040893555,0.116363525,15.135193,-19.551086,-49.053955,0,0.058728151,1.586177971,7.196346157,,2.146813
8.05532E+12,0.22088623,2.149994,6.9181213,0.006072998,-0.040893555,0.116363525,15.135193,-19.551086,-49.053955,0,0.066836055,1.614368773,7.182434914,,2.146813
8.05533E+12,0.17442322,2.1823425,7.15152,-0.001647949,0.038330078,0.08874512,14.94751,-18.34259,-47.947693,0,0.072215414,1.642767459,7.180889168,,2.146813
8.05533E+12,0.06173706,2.0995636,7.281708,0.010467529,0.06808472,0.08061218,14.94751,-18.34259,-47.947693,0,0.071691496,1.665607266,7.18593011,,2.146813
8.05534E+12,-0.07362366,1.998642,7.217102,0.033828735,0.09454346,0.076797485,14.94751,-18.34259,-47.947693,0,0.064425738,1.682259003,7.187488704,,2.146813
8.05534E+12,-0.12889099,1.9718475,7.1842194,0.061294556,0.12286377,0.07980347,15.209961,-19.651794,-46.925354,0,0.054759902,1.696738428,7.187325239,,2.146813
8.05535E+12,-0.115112305,2.0907288,7.036331,0.088897705,0.14979553,0.09059143,15.209961,-19.651794,-46.925354,0,0.046266291,1.716437946,7.179775527,,2.146813
8.05535E+12,-0.09750366,2.1939545,6.936905,0.110702515,0.1743927,0.1078949,15.209961,-19.651794,-46.925354,0,0.039077794,1.740313774,7.167632001,,2.146813
8.05536E+12,-0.012252808,2.2943115,6.7754364,0.125,0.1949768,0.12425232,15.209961,-19.651794,-46.925354,0,0.036511264,1.76801366,7.148022221,,2.146813
8.05536E+12,0.03945923,2.3394623,6.81868,0.12934875,0.20768738,0.14089966,14.912415,-19.554138,-47.60132,0,0.036658662,1.796586092,7.13155511,,2.146813
8.05537E+12,0.13983154,2.4605713,6.9492035,0.125,0.21282959,0.15245056,14.912415,-19.554138,-47.60132,0,0.041817306,1.829785353,7.122437529,,2.146813
8.05537E+12,0.20013428,2.5823975,7.1327667,0.112716675,0.21044922,0.16175842,14.912415,-19.554138,-47.60132,0,0.049733155,1.86741596,7.122953988,,2.146813
8.05538E+12,0.25697327,2.6917725,7.3521423,0.09992981,0.19807434,0.16738892,14.912415,-19.554138,-47.60132,0,0.06009516,1.908633787,7.134413403,,2.146813
8.05538E+12,0.2618103,2.7941132,7.526779,0.08987427,0.1773529,0.16595459,14.389038,-19.519043,-49.066162,0,0.070180917,1.952907758,7.154031683,,2.146813
8.05539E+12,0.2292633,2.8578491,7.7086945,0.084609985,0.15008545,0.15904236,14.389038,-19.519043,-49.066162,0,0.078135036,1.998154825,7.181764824,,2.146813
8.05539E+12,0.14772034,2.857895,8.005417,0.07737732,0.1085968,0.14414978,14.389038,-19.519043,-49.066162,0,0.081614302,2.041141834,7.222947433,,2.146813
8.0554E+12,0.005050659,2.815506,8.512543,0.0667572,0.061798096,0.12440491,14.389038,-19.519043,-49.066162,0,0.07778612,2.079860042,7.287427211,,2.146813
8.0554E+12,-0.08483887,2.7946472,9.189545,0.053451538,0.011245728,0.10331726,14.866638,-19.995117,-48.60077,0,0.06965487,2.1155994,7.382533101,,2.146813
8.05541E+12,-0.1580658,2.7525635,9.888824,0.04168701,-0.034332275,0.085861206,14.866638,-19.995117,-48.60077,0,0.058268837,2.147447605,7.507847646,,2.146813
8.05541E+12,-0.21873474,2.6377106,10.513657,0.04135132,-0.07373047,0.072525024,14.866638,-19.995117,-48.60077,0,0.044418658,2.171960755,7.658138113,,2.146813
8.05542E+12,-0.30410767,2.4855957,11.14743,0.05783081,-0.1048584,0.060928345,14.866638,-19.995117,-48.60077,0,0.026992341,2.187642502,7.832602708,,2.146813
8.05542E+12,-0.3759613,2.321167,11.462219,0.095687866,-0.12753296,0.054229736,14.927673,-19.56482,-48.66028,0,0.006844659,2.194318727,8.014083522,,2.146813
8.05543E+12,-0.38319397,2.1611328,11.593658,0.14756775,-0.13859558,0.05418396,14.927673,-19.56482,-48.66028,0,-0.012657272,2.19265943,8.193062246,,2.146813
8.05543E+12,-0.39067078,2.0865784,11.692596,0.20315552,-0.13679504,0.05860901,14.927673,-19.56482,-48.66028,0,-0.031557948,2.187355379,8.368038934,,2.146813
8.05544E+12,-0.3748474,2.0574493,11.90892,0.24787903,-0.12449646,0.06866455,14.927673,-19.56482,-48.66028,0,-0.04872242,2.180860075,8.545082987,,2.146813
8.05544E+12,-0.29815674,2.006546,12.147125,0.27452087,-0.10423279,0.08294678,14.653015,-19.050598,-49.269104,0,-0.061194136,2.172144371,8.725185088,,2.146813
8.05545E+12,-0.22259521,1.9322357,12.337799,0.28536987,-0.070495605,0.09887695,14.653015,-19.050598,-49.269104,0,-0.06926419,2.160148938,8.905815783,,2.146813
8.05545E+12,-0.115371704,1.9046478,12.5125885,0.28678894,-0.020629883,0.11340332,14.653015,-19.050598,-49.269104,0,-0.071569566,2.147373881,9.086154419,,2.146813
8.05546E+12,0.0128479,1.9428253,12.481689,0.28126526,0.037841797,0.12654114,14.653015,-19.050598,-49.269104,0,-0.067348692,2.137146452,9.255931148,,2.146813
8.05546E+12,0.12802124,2.0168762,12.340363,0.26756287,0.10031128,0.13748169,14.009094,-19.47937,-50.109863,0,-0.057580196,2.131132939,9.410152741,,2.146813
8.05547E+12,0.22180176,2.1017914,12.204773,0.24380493,0.15852356,0.14289856,14.009094,-19.47937,-50.109863,0,-0.043611098,2.129665862,9.549883754,,2.146813
8.05547E+12,0.32867432,2.1883545,12.115616,0.21080017,0.20014954,0.1403656,14.009094,-19.47937,-50.109863,0,-0.024996827,2.132600294,9.678170366,,2.146813
8.05548E+12,0.5309448,2.2164307,12.258972,0.16545105,0.2272644,0.12944031,14.009094,-19.47937,-50.109863,0,0.002800254,2.136791814,9.807210448,,2.146813
8.05548E+12,0.70495605,2.2535553,12.559921,0.11172485,0.23474121,0.113601685,14.889526,-19.332886,-48.81897,0,0.037908044,2.142629989,9.944845975,,2.146813
8.05549E+12,0.9353485,2.273056,12.884552,0.05783081,0.22019958,0.089660645,14.889526,-19.332886,-48.81897,0,0.082780067,2.149151289,10.09183128,,2.146813
8.05549E+12,1.0760803,2.2514954,13.14183,0.01260376,0.18304443,0.05545044,14.889526,-19.332886,-48.81897,0,0.132445079,2.154268495,10.24433121,,2.146813
8.0555E+12,1.0932312,2.149887,13.341003,-0.014785767,0.11936951,0.015014648,14.889526,-19.332886,-48.81897,0,0.180484385,2.15404942,10.3991648,,2.146813
8.0555E+12,0.9556732,1.9820251,13.611984,-0.021255493,0.0382843,-0.030944824,15.534973,-20.126343,-47.613525,0,0.219243825,2.145448204,10.55980576,,2.146813
8.05551E+12,0.68955994,1.7516937,13.755768,-0.009796143,-0.07170105,-0.088409424,15.534973,-20.126343,-47.613525,0,0.242759631,2.125760479,10.71960387,,2.146813
8.05551E+12,0.37820435,1.4396667,13.964462,0.015228272,-0.18591309,-0.1350708,15.534973,-20.126343,-47.613525,0,0.249531867,2.09145579,10.88184678,,2.146813
8.05552E+12,0.09700012,1.2124481,14.126022,0.048461914,-0.28981018,-0.16999817,15.534973,-20.126343,-47.613525,0,0.24190528,2.047505405,11.04405554,,2.146813
8.05552E+12,-0.109191895,0.99516296,14.180084,0.07814026,-0.372818,-0.18850708,14.866638,-21.368408,-48.2666,0,0.224350421,1.994888283,11.20085696,,2.146813
8.05553E+12,-0.12510681,0.86875916,14.035904,0.10769653,-0.42990112,-0.18830872,14.866638,-21.368408,-48.2666,0,0.206877559,1.938581827,11.34260932,,2.146813
8.05553E+12,-0.05319214,0.8069,13.793747,0.13311768,-0.45991516,-0.17346191,14.866638,-21.368408,-48.2666,0,0.193874074,1.881997736,11.4651662,,2.146813
8.05554E+12,0.059158325,0.8297882,13.628586,0.15449524,-0.47502136,-0.14846802,15.122986,-19.743347,-47.514343,0,0.187138287,1.829387259,11.57333719,,2.146813
8.05554E+12,0.10978699,0.81211853,13.222443,0.1673584,-0.4723053,-0.12435913,15.122986,-19.743347,-47.514343,0,0.183270722,1.778523822,11.65579248,,2.146813
8.05555E+12,0.15248108,0.7992859,12.792633,0.17208862,-0.45515442,-0.09950256,15.122986,-19.743347,-47.514343,0,0.18173124,1.729561926,11.71263451,,2.146813
8.05555E+12,0.22026062,0.94311523,12.3428955,0.16404724,-0.42625427,-0.08027649,15.122986,-19.743347,-47.514343,0,0.183657709,1.690239591,11.74414756,,2.146813
8.05556E+12,0.3867035,1.1334839,12.211594,0.13922119,-0.39317322,-0.06665039,14.503479,-19.335938,-47.78595,0,0.193809999,1.662401807,11.76751988,,2.146813
8.05556E+12,0.4459076,1.2690582,11.975235,0.1058197,-0.3659973,-0.057785034,14.503479,-19.335938,-47.78595,0,0.206414879,1.642734627,11.77790563,,2.146813
8.05557E+12,0.5031433,1.3447113,11.97847,0.058883667,-0.3461151,-0.05609131,14.503479,-19.335938,-47.78595,0,0.2212513,1.62783346,11.78793385,,2.146813
8.05557E+12,0.5923004,1.3943787,11.899063,0.014190674,-0.3354187,-0.06600952,14.503479,-19.335938,-47.78595,0,0.239803755,1.616160722,11.79349031,,2.146813
8.05558E+12,0.6921997,1.4966736,11.813873,-0.029541016,-0.33148193,-0.08262634,13.6657715,-20.509338,-48.768616,0,0.262423552,1.610186366,11.79450944,,2.146813
8.05558E+12,0.80366516,1.6555939,11.7977295,-0.07369995,-0.32954407,-0.10575867,13.6657715,-20.509338,-48.768616,0,0.289485632,1.612456743,11.79467045,,2.146813
8.05559E+12,1.0095367,1.7618561,11.827515,-0.120651245,-0.32847595,-0.13546753,13.6657715,-20.509338,-48.768616,0,0.325488186,1.619926711,11.79631268,,2.146813
8.05559E+12,1.2254486,1.8190155,12.075684,-0.17092896,-0.32810974,-0.17358398,13.6657715,-20.509338,-48.768616,0,0.370486206,1.62988115,11.81028124,,2.146813
8.0556E+12,1.4033203,1.8139648,12.442459,-0.22698975,-0.32946777,-0.22525024,13.957214,-20.217896,-48.86322,0,0.422127911,1.639085333,11.84189013,,2.146813
8.0556E+12,1.4813995,1.7970734,12.82486,-0.27534485,-0.3280182,-0.28199768,13.957214,-20.217896,-48.86322,0,0.475091491,1.646984736,11.89103862,,2.146813
8.05561E+12,1.4247589,1.6312103,13.038437,-0.31019592,-0.32250977,-0.34571838,13.957214,-20.217896,-48.86322,0,0.522574861,1.646196014,11.94840854,,2.146813
8.05561E+12,1.2636108,1.3942261,13.088638,-0.32731628,-0.3058319,-0.41004944,13.957214,-20.217896,-48.86322,0,0.559626658,1.633597518,12.00542001,,2.146813
8.05562E+12,0.97994995,1.1472626,13.105331,-0.33155823,-0.27827454,-0.47123718,14.079285,-19.29779,-48.254395,0,0.580642823,1.609280773,12.06041556,,2.146813
8.05562E+12,0.5607605,0.80070496,13.084473,-0.32289124,-0.24429321,-0.5254822,14.079285,-19.29779,-48.254395,0,0.579648706,1.568851982,12.11161844,,2.146813
8.05563E+12,0.18305969,0.46081543,13.024902,-0.29919434,-0.2050476,-0.5654144,14.079285,-19.29779,-48.254395,0,0.559819256,1.513450154,12.15728261,,2.146813
8.05563E+12,-0.11691284,0.13632202,12.845627,-0.26493835,-0.16233826,-0.5787201,14.079285,-19.29779,-48.254395,0,0.525982651,1.444593748,12.19169983,,2.146813
8.05564E+12,-0.31399536,-0.06402588,12.540482,-0.21868896,-0.11061096,-0.56573486,14.009094,-18.792725,-47.76306,0,0.48398375,1.369162766,12.20913894,,2.146813
8.05564E+12,-0.47000122,-0.14497375,12.165466,-0.16468811,-0.053329468,-0.5298004,14.009094,-18.792725,-47.76306,0,0.436284502,1.29345594,12.20695529,,2.146813
8.05565E+12,-0.5218048,-0.18009949,11.656189,-0.10787964,0.001922607,-0.47721863,14.009094,-18.792725,-47.76306,0,0.388380037,1.219778169,12.17941698,,2.146813
8.05565E+12,-0.44537354,-0.14299011,11.080566,-0.045425415,0.056121826,-0.40982056,14.009094,-18.792725,-47.76306,0,0.346692358,1.151639755,12.12447443,,2.146813
8.05566E+12,-0.2535553,-0.03227234,10.44043,0.02130127,0.100616455,-0.33335876,13.789368,-19.230652,-48.831177,0,0.316679975,1.09244415,12.04027221,,2.146813
8.05566E+12,0.04650879,0.19644165,9.677689,0.08744812,0.12773132,-0.2569275,13.789368,-19.230652,-48.831177,0,0.303171416,1.047644025,11.92214305,,2.146813
8.05567E+12,0.37828064,0.5249176,8.897247,0.14956665,0.1412201,-0.18493652,13.789368,-19.230652,-48.831177,0,0.306926877,1.021507704,11.77089825,,2.146813
8.05567E+12,0.6657562,0.81111145,8.223373,0.19902039,0.13894653,-0.12495422,13.789368,-19.230652,-48.831177,0,0.324868343,1.010987891,11.59352198,,2.146813
8.05568E+12,0.88127136,1.0530548,7.6022644,0.23205566,0.12133789,-0.08482361,13.220215,-19.702148,-49.0036,0,0.352688494,1.013091237,11.3939591,,2.146813
8.05568E+12,1.1299591,1.2476196,7.0572815,0.25013733,0.09240723,-0.06185913,13.220215,-19.702148,-49.0036,0,0.391552024,1.024817655,11.17712522,,2.146813
8.05569E+12,1.345993,1.3778839,6.632492,0.24832153,0.059570313,-0.054611206,13.220215,-19.702148,-49.0036,0,0.439274073,1.042470967,10.94989356,,2.146813
8.05569E+12,1.489624,1.5519409,6.267639,0.22645569,0.029937744,-0.058441162,13.220215,-19.702148,-49.0036,0,0.491791569,1.067944464,10.71578084,,2.146813
8.0557E+12,1.5789185,1.6963959,6.059799,0.18276978,0.004745483,-0.076431274,12.979126,-19.822693,-48.768616,0,0.546147916,1.099367036,10.48298174,,2.146813
8.0557E+12,1.5950165,1.7929382,5.9795227,0.12339783,-0.015960693,-0.105911255,12.979126,-19.822693,-48.768616,0,0.598591345,1.134045594,10.25780879,,2.146813
8.05571E+12,1.5638275,1.7632599,6.0129547,0.05505371,-0.031280518,-0.14219666,12.979126,-19.822693,-48.768616,0,0.646853153,1.165506309,10.04556609,,2.146813
8.05571E+12,1.5038757,1.6903992,6.156357,-0.028747559,-0.039352417,-0.18519592,12.979126,-19.822693,-48.768616,0,0.68970428,1.191750954,9.851105632,,2.146813
8.05572E+12,1.4383545,1.6046143,6.3023224,-0.11192322,-0.038497925,-0.22917175,13.708496,-19.822693,-48.53058,0,0.727136791,1.212394121,9.673666471,,2.146813
8.05572E+12,1.3685455,1.5301514,6.554886,-0.1893158,-0.033477783,-0.26919556,13.708496,-19.822693,-48.53058,0,0.759207227,1.228281985,9.517727447,,2.146813
8.05573E+12,1.3463135,1.4746246,6.924408,-0.25686646,-0.023223877,-0.3026123,13.708496,-19.822693,-48.53058,0,0.78856254,1.240599116,9.388061475,,2.146813
8.05573E+12,1.3303375,1.3591461,7.168915,-0.3156891,-0.009307861,-0.33247375,13.708496,-19.822693,-48.53058,0,0.815651288,1.246526465,9.277104151,,2.146813
8.05574E+12,1.2264862,1.1708374,7.5586243,-0.35580444,0.008728027,-0.35728455,14.009094,-20.069885,-48.43445,0,0.836193034,1.242742012,9.191180159,,2.146813
8.05574E+12,1.059433,1.0589294,7.8328094,-0.38752747,0.034851074,-0.38104248,14.009094,-20.069885,-48.43445,0,0.847355032,1.233551381,9.123261621,,2.146813
8.05575E+12,0.8783722,0.99583435,7.9982147,-0.40107727,0.07077026,-0.39764404,14.009094,-20.069885,-48.43445,0,0.848905891,1.22166553,9.067009275,,2.146813
8.05575E+12,0.77212524,1.04216,8.145157,-0.40534973,0.11242676,-0.40519714,14.009094,-20.166016,-48.43445,0,0.845066858,1.212690253,9.020916661,,2.146813
8.05576E+12,0.62734985,1.0358124,8.327652,-0.40498352,0.15713501,-0.40826416,14.009094,-20.166016,-48.43445,0,0.834181008,1.20384636,8.986253428,,2.146813
8.05576E+12,0.5729065,0.9745941,8.535919,-0.3957367,0.2036438,-0.40698242,14.009094,-20.166016,-48.43445,0,0.821117282,1.192383747,8.963736706,,2.146813
8.05577E+12,0.50027466,0.8991699,8.605667,-0.37922668,0.2421112,-0.40286255,14.009094,-20.166016,-48.43445,0,0.805075151,1.177723055,8.945833221,,2.146813
8.05577E+12,0.46368408,0.8964081,8.601929,-0.33685303,0.2774048,-0.39323425,14.009094,-19.631958,-48.693848,0,0.788005598,1.163657307,8.92863801,,2.146813
8.05578E+12,0.46759033,0.8945923,8.363403,-0.2848816,0.29988098,-0.3821411,14.009094,-19.631958,-48.693848,0,0.771984834,1.150204057,8.90037626,,2.146813
8.05578E+12,0.5241394,0.9241638,8.238586,-0.22032166,0.30950928,-0.37028503,14.009094,-19.631958,-48.693848,0,0.759592563,1.138902044,8.867286747,,2.146813
8.05579E+12,0.614563,1.0214233,7.9520874,-0.14234924,0.30296326,-0.35920715,14.009094,-19.631958,-48.693848,0,0.752341084,1.133028107,8.821526779,,2.146813
8.05579E+12,0.7277527,1.1065216,7.619385,-0.055862427,0.27790833,-0.34753418,15.493774,-18.804932,-48.373413,0,0.751111665,1.131702781,8.76141969,,2.146813
8.0558E+12,0.7821045,1.1899872,7.1947327,0.033096313,0.23649597,-0.33836365,15.493774,-18.804932,-48.373413,0,0.752661307,1.134617002,8.683085341,,2.146813
8.0558E+12,0.7717438,1.2762146,6.693985,0.13311768,0.17185974,-0.33595276,15.493774,-18.804932,-48.373413,0,0.753615432,1.141696882,8.583630324,,2.146813
8.05581E+12,0.7084503,1.302597,6.1822205,0.2210083,0.09976196,-0.33979797,15.493774,-18.804932,-48.373413,0,0.751357175,1.149741888,8.463559833,,2.146813
8.05582E+12,0.5632477,1.2818298,5.781067,0.28707886,0.029953003,-0.35040283,15.896606,-18.621826,-48.2666,0,0.741951701,1.156346284,8.329435191,,2.146813
8.05582E+12,0.45443726,1.2711029,5.59198,0.32374573,-0.028381348,-0.3605652,15.896606,-18.621826,-48.2666,0,0.727575979,1.162084115,8.192562431,,2.146813
8.05583E+12,0.3933258,1.2349854,5.555664,0.32992554,-0.06652832,-0.3687744,15.896606,-18.621826,-48.2666,0,0.71086347,1.165729179,8.06071751,,2.146813
8.05583E+12,0.33032227,1.2341461,5.7233276,0.3120575,-0.08407593,-0.37094116,15.896606,-18.621826,-48.2666,0,0.69183641,1.169150025,7.943848014,,2.146813
8.05584E+12,0.22528076,1.2094574,5.9013977,0.27534485,-0.079452515,-0.37051392,15.603638,-18.914795,-48.2666,0,0.668508628,1.171165394,7.841725499,,2.146813
8.05584E+12,0.10066223,1.1874695,5.9996643,0.2361908,-0.054275513,-0.36805725,15.603638,-18.914795,-48.2666,0,0.640116308,1.171980599,7.749622439,,2.146813
8.05585E+12,-0.009307861,1.2107544,6.082962,0.20335388,-0.016342163,-0.3627472,15.603638,-18.914795,-48.2666,0,0.607645099,1.173919289,7.666289417,,2.146813
8.05585E+12,-0.064834595,1.2254944,6.2248383,0.18205261,0.021026611,-0.3547058,15.603638,-18.914795,-48.2666,0,0.574021115,1.176498045,7.594216861,,2.146813
8.05586E+12,-0.0980072,1.1976471,6.3384247,0.173172,0.05091858,-0.34420776,15.553284,-18.08319,-47.68982,0,0.540419699,1.177555497,7.531427253,,2.146813
8.05586E+12,-0.17562866,1.2159424,6.494568,0.17601013,0.07661438,-0.33171082,15.553284,-18.08319,-47.68982,0,0.504617281,1.179474842,7.47958429,,2.146813
8.05587E+12,-0.24137878,1.2565613,6.729706,0.18963623,0.10154724,-0.31755066,15.553284,-18.08319,-47.68982,0,0.467317478,1.183329165,7.442090376,,2.146813
8.05587E+12,-0.30917358,1.2273407,6.9869843,0.20840454,0.12495422,-0.30155945,15.553284,-18.08319,-47.68982,0,0.428492925,1.185529742,7.419335072,,2.146813
8.05588E+12,-0.33206177,1.1649475,7.1264496,0.23161316,0.14785767,-0.28225708,15.553284,-17.93518,-47.595215,0,0.39046519,1.18450063,7.404690798,,2.146813
8.05588E+12,-0.3488617,1.1340332,7.0953674,0.26187134,0.1714325,-0.25958252,15.553284,-17.93518,-47.595215,0,0.353498846,1.181977258,7.389224628,,2.146813
8.05589E+12,-0.36238098,1.182251,7.0700226,0.29832458,0.19119263,-0.23246765,15.553284,-17.93518,-47.595215,0,0.317704854,1.181990946,7.373264527,,2.146813
8.05589E+12,-0.2944336,1.286499,7.0125732,0.34327698,0.19894409,-0.19950867,15.553284,-17.93518,-47.595215,0,0.287097932,1.187216348,7.355229961,,2.146813
8.0559E+12,-0.21438599,1.3224182,6.925995,0.3921051,0.18959045,-0.16493225,15.867615,-18.881226,-48.825073,0,0.262023736,1.193976441,7.333768213,,2.146813
8.0559E+12,-0.21151733,1.3248596,6.77861,0.44091797,0.17019653,-0.13182068,15.867615,-18.881226,-48.825073,0,0.238346682,1.200520599,7.306010302,,2.146813
8.05591E+12,-0.21351624,1.3964844,6.5869904,0.48324585,0.14445496,-0.10050964,15.867615,-18.881226,-48.825073,0,0.215753536,1.210318789,7.270059307,,2.146813
8.05591E+12,-0.10990906,1.4902802,6.447983,0.51708984,0.11628723,-0.07066345,15.867615,-18.881226,-48.825073,0,0.199470406,1.224316859,7.228955492,,2.146813
8.05592E+12,0.021148682,1.6726532,6.5219727,0.5394287,0.087905884,-0.042007446,15.896606,-18.649292,-46.458435,0,0.19055432,1.246733676,7.193606352,,2.146813
8.05592E+12,0.13685608,1.8538666,6.5274353,0.55104065,0.057052612,-0.013626099,15.896606,-18.649292,-46.458435,0,0.187869408,1.277090323,7.160297799,,2.146813
8.05593E+12,0.2710266,2.0585632,6.6090546,0.55274963,0.028747559,0.007873535,15.896606,-18.649292,-46.458435,0,0.192027268,1.316163967,7.132735639,,2.146813
8.05593E+12,0.3751526,2.1474915,6.6917267,0.5464783,0.007644653,0.018615723,15.896606,-18.649292,-46.458435,0,0.201183534,1.357730343,7.110685192,,2.146813
8.05594E+12,0.4827118,2.221405,7.044632,0.5277405,-0.003753662,0.0209198,15.896606,-18.621826,-46.255493,0,0.215259948,1.400914076,7.107382533,,2.146813
8.05594E+12,0.52742004,2.3084106,7.3995056,0.49479675,-0.002243042,0.014465332,15.896606,-18.621826,-46.255493,0,0.230867952,1.446288902,7.121988686,,2.146813
8.05595E+12,0.5950928,2.3030548,7.7323,0.45202637,0.015258789,0.005477905,15.896606,-18.621826,-46.255493,0,0.249079195,1.489127197,7.152504252,,2.146813
8.05595E+12,0.5066681,2.3128662,8.050262,0.40133667,0.048095703,-0.004928589,15.896606,-18.621826,-46.255493,0,0.26195864,1.530314147,7.197392139,,2.146813
8.05596E+12,0.35058594,2.3694458,8.416443,0.3539276,0.08929443,-0.01789856,16.914368,-19.981384,-50.23346,0,0.266390005,1.57227073,7.258344682,,2.146813
8.05596E+12,0.12394714,2.3419495,8.834946,0.30581665,0.13926697,-0.027893066,16.914368,-19.981384,-50.23346,0,0.259267862,1.610754668,7.337174748,,2.146813
8.05597E+12,-0.13023376,2.3396454,9.227432,0.25901794,0.1925354,-0.03555298,16.914368,-19.981384,-50.23346,0,0.239792781,1.647199205,7.431687611,,2.146813
8.05597E+12,-0.20698547,2.2448425,9.608917,0.25901794,0.1925354,-0.03555298,16.914368,-19.981384,-50.23346,0,0.217453868,1.67708137,7.54054908,,2.146813
8.05598E+12,-0.3821411,2.1122284,9.974289,0.18312073,0.29148865,-0.028289795,16.075134,-19.483948,-47.781372,0,0.18747412,1.698838721,7.662236076,,2.146813
8.05598E+12,-0.5396576,1.9894714,10.193192,0.15408325,0.3368683,-0.013702393,16.075134,-19.483948,-47.781372,0,0.151117534,1.713370355,7.788783872,,2.146813
8.05599E+12,-0.6281738,1.9180298,10.571503,0.13522339,0.36886597,0.010360718,16.075134,-19.483948,-47.781372,0,0.112152967,1.723603327,7.927919829,,2.146813
8.05599E+12,-0.65771484,2.0454865,10.898239,0.12748718,0.37773132,0.043701172,16.075134,-19.483948,-47.781372,0,0.073659577,1.739697486,8.076435787,,2.146813
8.056E+12,-0.51626587,2.1220703,11.127136,0.13742065,0.358963,0.081222534,16.075134,-19.483948,-47.781372,0,0.044163304,1.758816127,8.228970798,,2.146813
8.056E+12,-0.40881348,2.1974487,11.415787,0.16304016,0.30828857,0.12020874,16.075134,-19.483948,-47.781372,0,0.021514465,1.780747755,8.388311608,,2.146813
8.05601E+12,-0.32347107,2.2518005,11.737305,0.19676208,0.23797607,0.15090942,16.075134,-19.483948,-47.781372,0,0.004265188,1.804300393,8.555761278,,2.146813
8.05601E+12,-0.16003418,2.3201141,11.978165,0.23861694,0.14170837,0.18185425,16.099548,-19.52362,-47.76764,0,-0.00394978,1.830091078,8.726881464,,2.146813
8.05602E+12,0.023544312,2.3704987,12.363388,0.27096558,0.05078125,0.20397949,16.099548,-19.52362,-47.76764,0,-0.002575075,1.857111459,8.908706791,,2.146813
8.05602E+12,0.18632507,2.484558,12.725143,0.29170227,-0.026855469,0.22229004,16.099548,-19.52362,-47.76764,0,0.006869932,1.888483786,9.099528601,,2.146813
8.05603E+12,0.2441101,2.573471,13.100739,0.29989624,-0.08708191,0.23468018,16.099548,-19.52362,-47.76764,0,0.01873194,1.922733147,9.299589121,,2.146813
8.05603E+12,0.16622925,2.5622253,13.455551,0.29914856,-0.13208008,0.23942566,16.905212,-20.703125,-47.8714,0,0.026106806,1.954707755,9.507387215,,2.146813
8.05604E+12,0.029663086,2.4618988,13.926773,0.29356384,-0.16651917,0.23701477,16.905212,-20.703125,-47.8714,0,0.02628462,1.980067307,9.728356504,,2.146813
8.05604E+12,-0.024002075,2.346817,14.434708,0.28701782,-0.19198608,0.23582458,16.905212,-20.703125,-47.8714,0,0.023770285,1.998404791,9.963674079,,2.146813
8.05605E+12,0.044937134,2.2420502,14.850937,0.2831726,-0.1974945,0.24241638,16.905212,-20.703125,-47.8714,0,0.024828627,2.010587062,10.20803723,,2.146813
8.05605E+12,0.16168213,2.2161255,15.232025,0.28251648,-0.17481995,0.2570343,16.583252,-21.025085,-46.925354,0,0.031671303,2.020863984,10.45923661,,2.146813
8.05606E+12,0.23498535,2.2029572,15.523285,0.28160095,-0.11891174,0.27694702,16.583252,-21.025085,-46.925354,0,0.041837005,2.029968645,10.71243903,,2.146813
8.05606E+12,0.28837585,2.1979675,15.584335,0.28038025,-0.030761719,0.29632568,16.583252,-21.025085,-46.925354,0,0.054163947,2.038368587,10.95603383,,2.146813
8.05607E+12,0.31913757,2.230072,15.383347,0.28129578,0.08943176,0.31271362,16.583252,-21.025085,-46.925354,0,0.067412628,2.047953758,11.17739949,,2.146813
8.05607E+12,0.35131836,2.3168945,15.074524,0.28411865,0.24006653,0.32867432,16.564941,-21.118164,-46.798706,0,0.081607915,2.061400795,11.37225572,,2.146813
8.05608E+12,0.4801178,2.4151306,14.627945,0.2879486,0.3889618,0.34228516,16.564941,-21.118164,-46.798706,0,0.101533409,2.079087285,11.53504018,,2.146813
8.05608E+12,0.633255,2.475647,14.004715,0.29115295,0.5274811,0.35316467,16.564941,-21.118164,-46.798706,0,0.128119489,2.098915271,11.65852392,,2.146813
8.05609E+12,0.7092285,2.5268707,13.249985,0.29455566,0.6462555,0.35873413,16.564941,-21.118164,-46.798706,0,0.157174939,2.120313043,11.73809697,,2.146813
8.05609E+12,0.73550415,2.6030426,12.409454,0.29580688,0.7346344,0.35614014,16.30249,-22.036743,-45.81604,0,0.1860914,2.14444952,11.77166483,,2.146813
8.0561E+12,0.7465515,2.7273407,11.577911,0.2884674,0.7955017,0.34701538,16.30249,-22.036743,-45.81604,0,0.214114405,2.173594079,11.76197713,,2.146813
8.0561E+12,0.80218506,2.8598022,10.89917,0.26649475,0.82099915,0.3330078,16.30249,-22.036743,-45.81604,0,0.243517938,2.207904485,11.71883678,,2.146813
8.05611E+12,0.8529968,3.0390778,10.404327,0.22990417,0.8070984,0.3148346,16.30249,-22.036743,-45.81604,0,0.273991881,2.249463151,11.65311129,,2.146813
8.05611E+12,0.8726654,3.2007294,10.07579,0.18115234,0.7564392,0.28570557,15.553284,-23.085022,-46.255493,0,0.303925557,2.297026464,11.57424522,,2.146813
8.05612E+12,0.8067169,3.2804565,9.869049,0.122665405,0.6737366,0.24049377,15.553284,-23.085022,-46.255493,0,0.329065124,2.346197965,11.48898541,,2.146813
8.05612E+12,0.7281952,3.223465,9.812027,0.058120728,0.57366943,0.18702698,15.553284,-23.085022,-46.255493,0,0.349021628,2.390061317,11.40513749,,2.146813
8.05613E+12,0.6248779,3.105774,9.8558655,-0.018508911,0.44891357,0.12362671,15.553284,-23.085022,-46.255493,0,0.362814441,2.425846951,11.32767389,,2.146813
8.05613E+12,0.44361877,2.9310913,10.173187,-0.09939575,0.3179779,0.056900024,15.855408,-22.903442,-46.195984,0,0.366854658,2.451109169,11.26994955,,2.146813
8.05614E+12,0.29273987,2.7152405,10.764084,-0.18457031,0.19302368,-0.007217407,15.855408,-22.903442,-46.195984,0,0.363148918,2.464315735,11.24465627,,2.146813
8.05614E+12,0.20674133,2.5185394,11.5589905,-0.2781067,0.08786011,-0.06628418,15.855408,-22.903442,-46.195984,0,0.355328539,2.467026919,11.26037298,,2.146813
8.05615E+12,0.06628418,2.269928,12.393127,-0.3746643,0.014755249,-0.11677551,15.855408,-22.903442,-46.195984,0,0.340876321,2.457171973,11.31701068,,2.146813
8.05615E+12,-0.2467041,1.9819794,13.09375,-0.4593506,-0.022262573,-0.1613617,17.471313,-22.325134,-45.854187,0,0.3114973,2.433412344,11.40584765,,2.146813
8.05616E+12,-0.6835327,1.7196198,13.707321,-0.54019165,-0.033309937,-0.20703125,17.471313,-22.325134,-45.854187,0,0.2617458,2.397722717,11.52092132,,2.146813
8.05616E+12,-1.1164856,1.3509064,14.393417,-0.6005249,-0.02017212,-0.24221802,17.471313,-22.325134,-45.854187,0,0.19283423,2.345381901,11.6645461,,2.146813
8.05617E+12,-1.5182953,1.0512085,14.943237,-0.63635254,0.004226685,-0.26506042,17.471313,-22.325134,-45.854187,0,0.107277753,2.280673231,11.82848065,,2.146813
8.05617E+12,-1.8642578,0.57676697,15.385178,-0.64959717,0.04182434,-0.2693634,18.299866,-23.428345,-45.585632,0,0.008700976,2.195477918,12.00631551,,2.146813
8.05618E+12,-2.1895294,0.24316406,15.450699,-0.6351929,0.0967865,-0.2546997,18.299866,-23.428345,-45.585632,0,-0.101210543,2.097862225,12.17853469,,2.146813
8.05618E+12,-2.4328766,0.009948731,15.172806,-0.60198975,0.164505,-0.22349548,18.299866,-23.428345,-45.585632,0,-0.217793846,1.99346655,12.32824825,,2.146813
8.05619E+12,-2.5327911,-0.0499115,14.727493,-0.54797363,0.25100708,-0.16960144,18.38379,-22.833252,-45.50171,0,-0.333543709,1.891297648,12.44821049,,2.146813
8.05619E+12,-2.4565735,-2.29E-04,14.137329,-0.48242188,0.3266449,-0.10328674,18.38379,-22.833252,-45.50171,0,-0.439695198,1.796721321,12.53266642,,2.146813
8.0562E+12,-2.4464417,0.03627014,13.5278015,-0.40567017,0.3738098,-0.033493042,18.38379,-22.833252,-45.50171,0,-0.540032523,1.708698762,12.58242317,,2.146813
8.0562E+12,-2.3168488,0.10151672,12.730484,-0.3131256,0.37971497,0.032836914,18.38379,-22.833252,-45.50171,0,-0.628873337,1.62833966,12.58982621,,2.146813
8.05621E+12,-2.1134796,0.09132385,11.928329,-0.20674133,0.34843445,0.09399414,18.50586,-20.79773,-45.736694,0,-0.70310365,1.55148887,12.55675135,,2.146813
8.05621E+12,-1.8556976,0.2532196,11.067337,-0.10610962,0.29562378,0.14653015,18.50586,-20.79773,-45.736694,0,-0.760733348,1.486575406,12.48228063,,2.146813
8.05622E+12,-1.6065216,0.48875427,10.383545,-0.004776001,0.21287537,0.19470215,18.50586,-20.79773,-45.736694,0,-0.80302276,1.436684349,12.37734385,,2.146813
8.05622E+12,-1.2577057,0.72566223,9.682297,0.07521057,0.11639404,0.22718811,18.50586,-20.79773,-45.736694,0,-0.825756907,1.401133243,12.24259151,,2.146813
8.05623E+12,-0.92607117,0.8943176,9.066269,0.14349365,0.009017944,0.24549866,18.128967,-20.166016,-47.0932,0,-0.83077262,1.375792461,12.08377538,,2.146813
8.05623E+12,-0.88578796,0.99279785,8.579025,0.19773865,-0.10379028,0.24516296,18.128967,-20.166016,-47.0932,0,-0.833523387,1.356642731,11.90853786,,2.146813
8.05624E+12,-1.0155945,1.0437775,8.193527,0.23600769,-0.21800232,0.22457886,18.128967,-20.166016,-47.0932,0,-0.842626943,1.340999469,11.72278732,,2.146813
8.05624E+12,-1.3405457,1.0354614,7.788788,0.26089478,-0.32766724,0.19644165,18.128967,-20.166016,-47.0932,0,-0.867522881,1.325722566,11.52608736,,2.146813
8.05625E+12,-1.7211151,0.8362274,7.359436,0.27497864,-0.4351654,0.16496277,18.128967,-19.839478,-46.56067,0,-0.910202492,1.301247807,11.31775479,,2.146813
8.05625E+12,-1.8181458,0.6520691,6.7977753,0.2720642,-0.5150757,0.14524841,18.128967,-19.839478,-46.56067,0,-0.955599657,1.268788872,11.09175581,,2.146813
8.05626E+12,-1.649704,0.60498047,6.532196,0.2454834,-0.5648804,0.14234924,18.128967,-19.839478,-46.56067,0,-0.990304874,1.235598452,10.86377782,,2.146813
8.05626E+12,-1.4893036,0.5784149,6.564987,0.18626404,-0.5839081,0.15080261,18.128967,-19.839478,-46.56067,0,-1.015254811,1.202739274,10.64883828,,2.146813
8.05627E+12,-1.4064178,0.5782623,6.7786713,0.100234985,-0.5794983,0.15914917,18.47229,-19.711304,-45.86487,0,-1.03481296,1.171515426,10.45532993,,2.146813
8.05627E+12,-1.3098907,0.5339813,7.073059,-0.002807617,-0.5487976,0.16435242,18.47229,-19.711304,-45.86487,0,-1.048566847,1.139638719,10.28621639,,2.146813
8.05628E+12,-1.2042084,0.45700073,7.1989136,-0.11222839,-0.48916626,0.1687622,18.47229,-19.711304,-45.86487,0,-1.056348925,1.10550682,10.13185125,,2.146813
8.05628E+12,-1.0693207,0.391037,7.288147,-0.2053833,-0.41481018,0.17370605,18.47229,-19.711304,-45.86487,0,-1.056997514,1.069783329,9.989666034,,2.146813
8.05629E+12,-0.9448395,0.38409424,7.3704376,-0.28326416,-0.33488464,0.17648315,19.158936,-20.852661,-46.757507,0,-1.051389613,1.035498874,9.858704612,,2.146813
8.05629E+12,-0.89463806,0.44206238,7.5071716,-0.34432983,-0.26339722,0.17250061,19.158936,-20.852661,-46.757507,0,-1.043552035,1.00582705,9.741127962,,2.146813
8.0563E+12,-0.82910156,0.446167,7.755905,-0.385437,-0.21234131,0.16081238,19.158936,-20.852661,-46.757507,0,-1.032829511,0.977844047,9.641866814,,2.146813
8.0563E+12,-0.8075714,0.2965393,7.830658,-0.4028015,-0.17938232,0.14376831,19.158936,-20.852661,-46.757507,0,-1.021566606,0.94377881,9.551306373,,2.146813
8.05631E+12,-0.8923645,0.119262695,7.694275,-0.39027405,-0.15766907,0.12452698,18.492126,-21.51947,-46.366882,0,-1.015106501,0.902553004,9.458454804,,2.146813
8.05631E+12,-1.039917,0.021820068,7.466797,-0.35424805,-0.13508606,0.1118927,18.492126,-21.51947,-46.366882,0,-1.016347026,0.858516357,9.358871914,,2.146813
8.05632E+12,-1.1770935,-0.006668091,7.2879944,-0.30789185,-0.109313965,0.10864258,18.492126,-21.51947,-46.366882,0,-1.024384349,0.815257135,9.255328038,,2.146813
8.05632E+12,-1.1873627,0.017471313,7.1574554,-0.25912476,-0.08735657,0.11433411,18.492126,-21.51947,-46.366882,0,-1.032533267,0.775367844,9.150434407,,2.146813
8.05633E+12,-1.1709747,0.09164429,6.840317,-0.20689392,-0.07136536,0.12809753,17.718506,-21.740723,-45.481873,0,-1.039455338,0.741181666,9.034928536,,2.146813
8.05633E+12,-1.0628204,0.1867218,6.3727417,-0.14178467,-0.06010437,0.15037537,17.718506,-21.740723,-45.481873,0,-1.040623592,0.713458673,8.901819194,,2.146813
8.05634E+12,-0.907959,0.28186035,5.901169,-0.06956482,-0.06210327,0.1765747,17.718506,-21.740723,-45.481873,0,-1.033990362,0.691878757,8.751786685,,2.146813
8.05634E+12,-0.70339966,0.35650635,5.5874023,-0.001373291,-0.07434082,0.20202637,17.718506,-21.740723,-45.481873,0,-1.017460827,0.675110136,8.593567465,,2.146813
8.05635E+12,-0.5760956,0.47669983,5.2868958,0.057876587,-0.08773804,0.2238617,18.128967,-20.509338,-45.082092,0,-0.995392566,0.665189621,8.428233882,,2.146813
8.05635E+12,-0.49635315,0.5385742,4.891388,0.10444641,-0.09310913,0.23776245,18.128967,-20.509338,-45.082092,0,-0.970440595,0.65885885,8.251391588,,2.146813
8.05636E+12,-0.31254578,0.6773224,4.481186,0.13323975,-0.08303833,0.24743652,18.128967,-20.509338,-45.082092,0,-0.937545854,0.659782027,8.062881309,,2.146813
8.05636E+12,-0.07434082,0.8686371,4.1424103,0.14923096,-0.055648804,0.25680542,18.128967,-20.509338,-45.082092,0,-0.894385602,0.670224781,7.866857758,,2.146813
8.05637E+12,-0.11581421,0.9630432,3.7897797,0.14552307,-0.017333984,0.25912476,17.185974,-19.725037,-46.00067,0,-0.855457033,0.684865702,7.663003855,,2.146813
8.05637E+12,-0.2637329,0.9971161,3.3305206,0.123565674,0.031692505,0.253479,17.185974,-19.725037,-46.00067,0,-0.825870826,0.700478222,7.446379693,,2.146813
8.05638E+12,-0.17033386,1.0893097,3.1091766,0.08782959,0.08668518,0.24497986,17.185974,-19.725037,-46.00067,0,-0.793093978,0.719919796,7.229519538,,2.146813
8.05638E+12,0.018356323,1.2470245,3.2034302,0.038528442,0.13845825,0.2402649,17.185974,-19.725037,-46.00067,0,-0.752521463,0.746275031,7.028215071,,2.146813
8.05639E+12,0.34797668,1.4527893,3.0635834,-0.014312744,0.16726685,0.23617554,16.473389,-19.522095,-46.539307,0,-0.697496556,0.781600744,6.829983487,,2.146813
8.05639E+12,0.47364807,1.6996002,3.1017761,-0.068573,0.18495178,0.22833252,16.473389,-19.522095,-46.539307,0,-0.638939324,0.827500717,6.643573118,,2.146813
8.0564E+12,0.44989014,1.7277069,3.2016907,-0.113204956,0.19128418,0.20321655,16.473389,-19.522095,-46.539307,0,-0.584497851,0.872511026,6.471478997,,2.146813
8.0564E+12,0.2781372,1.7178802,3.4447021,-0.15470886,0.17623901,0.16239929,16.926575,-20.33844,-45.9198,0,-0.541366099,0.914779485,6.320140152,,2.146813
8.05641E+12,0.10774231,1.596756,3.6008759,-0.18785095,0.14466858,0.12034607,16.926575,-20.33844,-45.9198,0,-0.508910678,0.948878311,6.18417694,,2.146813
8.05641E+12,-0.11552429,1.511734,3.9459991,-0.21109009,0.11260986,0.08488464,16.926575,-20.33844,-45.9198,0,-0.489241359,0.977021095,6.072268048,,2.146813
8.05642E+12,-0.47042847,1.43927,4.424118,-0.22488403,0.07662964,0.056777954,16.926575,-20.33844,-45.9198,0,-0.488300714,1.000133541,5.989860545,,2.146813
8.05642E+12,-0.771225,1.2848358,4.88002,-0.22451782,0.023773193,0.038253784,16.835022,-20.791626,-46.53778,0,-0.502446929,1.014368653,5.934368518,,2.146813
8.05643E+12,-0.9735565,1.1335602,5.400528,-0.21191406,-0.02609253,0.03274536,16.835022,-20.791626,-46.53778,0,-0.526002407,1.020328231,5.907676492,,2.146813
8.05643E+12,-1.0096588,1.0335388,5.9543,-0.18791199,-0.07180786,0.041427612,16.835022,-20.791626,-46.53778,0,-0.550185227,1.020988759,5.910007668,,2.146813
8.05644E+12,-0.99064636,1.0205688,6.1832275,-0.15200806,-0.1085968,0.06222534,16.835022,-20.791626,-46.53778,0,-0.572208283,1.020967761,5.923668659,,2.146813
8.05644E+12,-0.8486786,1.0730743,6.4565887,-0.10713196,-0.13215637,0.0921936,17.033386,-20.733643,-46.458435,0,-0.586031799,1.023573088,5.950314661,,2.146813
8.05645E+12,-0.69506836,1.1169281,6.630127,-0.056121826,-0.14613342,0.12327576,17.033386,-20.733643,-46.458435,0,-0.591483627,1.028240839,5.984305278,,2.146813
8.05645E+12,-0.61735535,1.1234436,6.689743,0.005905151,-0.1568451,0.15080261,17.033386,-20.733643,-46.458435,0,-0.592777213,1.033000977,6.019577164,,2.146813
8.05646E+12,-0.5583496,1.1719208,6.5920258,0.06355286,-0.1558075,0.17111206,17.033386,-20.733643,-46.458435,0,-0.591055833,1.039946968,6.048199596,,2.146813
8.05646E+12,-0.40272522,1.3696289,6.2445984,0.10942078,-0.13645935,0.18714905,17.269897,-20.33844,-45.9198,0,-0.581639302,1.056431065,6.058019536,,2.146813
8.05647E+12,-0.17451477,1.6456146,5.998886,0.13409424,-0.10083008,0.20132446,17.269897,-20.33844,-45.9198,0,-0.561283076,1.085890241,6.055062859,,2.146813
8.05647E+12,0.07608032,1.9481354,5.9562073,0.13070679,-0.05644226,0.20832825,17.269897,-20.33844,-45.9198,0,-0.529414906,1.129002499,6.050120081,,2.146813
8.05648E+12,0.34088135,2.1467133,5.98584,0.10083008,-0.015319824,0.20046997,17.269897,-20.33844,-45.9198,0,-0.485900093,1.179888039,6.046906077,,2.146813
8.05648E+12,0.57366943,2.2540894,6.2050323,0.047668457,0.02178955,0.17428589,16.860962,-19.93103,-46.318054,0,-0.432921617,1.233598107,6.054812389,,2.146813
8.05649E+12,0.64793396,2.31781,6.5653687,-0.013153076,0.052734375,0.13539124,16.860962,-19.93103,-46.318054,0,-0.378878838,1.287808702,6.080340204,,2.146813
8.05649E+12,0.52023315,2.2936249,7.064575,-0.0770874,0.07550049,0.08468628,16.860962,-19.93103,-46.318054,0,-0.333923239,1.338099512,6.129551944,,2.146813
8.0565E+12,0.30111694,2.2477264,7.642456,-0.13523865,0.08255005,0.025421143,16.860962,-19.93103,-46.318054,0,-0.30217123,1.383580856,6.205197147,,2.146813
8.0565E+12,0.004638672,2.1503754,8.132355,-0.17582703,0.07194519,-0.033218384,16.061401,-21.217346,-46.691895,0,-0.286830735,1.421920584,6.301555039,,2.146813
8.05651E+12,-0.3222351,1.9674988,8.494537,-0.1943512,0.043884277,-0.087905884,16.061401,-21.217346,-46.691895,0,-0.288600953,1.449199494,6.411204137,,2.146813
8.05651E+12,-0.57173157,1.763382,8.868851,-0.18998718,5.19E-04,-0.1335907,16.061401,-21.217346,-46.691895,0,-0.302757484,1.46490862,6.534086481,,2.146813
8.05652E+12,-0.7931824,1.6165466,9.279129,-0.17253113,-0.050872803,-0.16156006,16.061401,-21.217346,-46.691895,0,-0.32727873,1.472490519,6.671338606,,2.146813
8.05653E+12,-1.0086212,1.510086,9.813293,-0.15437317,-0.106048584,-0.17524719,15.725708,-22.227478,-46.757507,0,-0.361345853,1.474370293,6.828436326,,2.146813
8.05653E+12,-1.1596985,1.4402008,10.224487,-0.13798523,-0.15908813,-0.17402649,15.725708,-22.227478,-46.757507,0,-0.401263485,1.472661818,6.99823886,,2.146813
8.05654E+12,-1.1584625,1.384613,10.598694,-0.1210022,-0.20315552,-0.15835571,15.725708,-22.227478,-46.757507,0,-0.439123436,1.468259377,7.178261617,,2.146813
8.05654E+12,-0.9692383,1.4548492,11.019012,-0.10069275,-0.24316406,-0.12988281,15.725708,-22.227478,-46.757507,0,-0.465629179,1.467588868,7.370299136,,2.146813
8.05655E+12,-0.64390564,1.6560516,11.492462,-0.08016968,-0.27897644,-0.0952301,15.609741,-21.426392,-47.314453,0,-0.474543002,1.477012005,7.576407279,,2.146813
8.05655E+12,-0.33143616,1.812149,12.142105,-0.062805176,-0.3151245,-0.06561279,15.609741,-21.426392,-47.314453,0,-0.46738766,1.493768855,7.804692165,,2.146813
8.05656E+12,-0.034622192,1.8751678,12.65654,-0.04321289,-0.34840393,-0.047714233,15.609741,-21.426392,-47.314453,0,-0.445749387,1.512838802,8.047284557,,2.146813
8.05656E+12,0.18927002,1.8073425,12.8832245,-0.025756836,-0.3637848,-0.0440979,15.609741,-21.426392,-47.314453,0,-0.413998416,1.527563987,8.289081554,,2.146813
8.05657E+12,0.26089478,1.7250977,12.878387,-0.013397217,-0.35139465,-0.05027771,15.6692505,-20.213318,-46.34857,0,-0.380253757,1.537440672,8.518546826,,2.146813
8.05657E+12,0.23069763,1.6873627,12.926331,-0.015228272,-0.3086548,-0.064453125,15.6692505,-20.213318,-46.34857,0,-0.349706187,1.544936774,8.738936035,,2.146813
8.05658E+12,0.1934967,1.7515259,13.102951,-0.047683716,-0.24279785,-0.084472656,15.6692505,-20.213318,-46.34857,0,-0.322546043,1.55526623,8.957136783,,2.146813
8.05658E+12,0.27368164,1.8010406,13.500504,-0.10671997,-0.16053772,-0.10699463,15.6692505,-20.213318,-46.34857,0,-0.292734659,1.567554949,9.184305144,,2.146813
8.05659E+12,0.2836609,1.7827759,14.009476,-0.18418884,-0.07055664,-0.12808228,15.725708,-19.822693,-45.751953,0,-0.263914881,1.578315996,9.425563687,,2.146813
8.05659E+12,0.1774292,1.7496033,14.494034,-0.26409912,0.01260376,-0.15370178,15.725708,-19.822693,-45.751953,0,-0.241847677,1.586880361,9.678987203,,2.146813
8.0566E+12,-0.008102417,1.7757874,15.103668,-0.32763672,0.07910156,-0.18185425,15.725708,-19.822693,-45.751953,0,-0.230160414,1.596325713,9.950221243,,2.146813
8.0566E+12,-0.22875977,1.7339783,15.530273,-0.3781433,0.13710022,-0.21424866,15.725708,-19.822693,-45.751953,0,-0.230090382,1.603208343,10.22922383,,2.146813
8.05661E+12,-0.41764832,1.585907,15.862183,-0.39631653,0.1639862,-0.23883057,16.230774,-20.83435,-48.2193,0,-0.239468279,1.602343276,10.51087179,,2.146813
8.05661E+12,-0.5793762,1.3266449,15.934631,-0.37345886,0.15838623,-0.25335693,16.230774,-20.83435,-48.2193,0,-0.256463675,1.588558357,10.78205975,,2.146813
8.05662E+12,-0.638443,1.1297302,15.877869,-0.3140564,0.12420654,-0.25543213,16.230774,-20.83435,-48.2193,0,-0.275562641,1.565616949,11.03685021,,2.146813
8.05662E+12,-0.6542511,1.0033264,15.751465,-0.3140564,0.12420654,-0.25543213,16.230774,-20.83435,-48.2193,0,-0.294497064,1.537502421,11.27258095,,2.146813
8.05663E+12,-0.6839447,0.89250183,15.50444,-0.1394043,0.0052948,-0.22909546,15.258789,-19.789124,-47.97821,0,-0.313969446,1.505252392,11.4841739,,2.146813
8.05663E+12,-0.6458435,0.759079,15.128891,-0.04145813,-0.06599426,-0.19989014,15.258789,-19.789124,-47.97821,0,-0.330563148,1.467943722,11.66640976,,2.146813
8.05664E+12,-0.40971375,0.89878845,14.665924,0.041641235,-0.12937927,-0.16036987,15.258789,-19.789124,-47.97821,0,-0.334520678,1.439485959,11.81638547,,2.146813
8.05664E+12,-0.004226685,1.1001129,14.015564,0.112594604,-0.1915741,-0.12062073,14.866638,-19.308472,-47.595215,0,-0.318005979,1.422517306,11.9263444,,2.146813
8.05665E+12,0.3973236,1.3583221,13.398071,0.16365051,-0.2518921,-0.08760071,14.866638,-19.308472,-47.595215,0,-0.2822395,1.419307545,11.99993073,,2.146813
8.05665E+12,0.83114624,1.6367493,12.991974,0.18388367,-0.30775452,-0.0690155,14.866638,-19.308472,-47.595215,0,-0.226570213,1.430179633,12.04953289,,2.146813
8.05666E+12,1.2351837,1.9511261,12.893143,0.17074585,-0.35868835,-0.07485962,14.866638,-19.308472,-47.595215,0,-0.153482517,1.456226957,12.0917134,,2.146813
8.05666E+12,1.4337463,2.0842743,12.942871,0.1174469,-0.4076538,-0.111587524,15.005493,-19.447327,-48.539734,0,-0.074121076,1.487629324,12.13427128,,2.146813
8.05667E+12,1.4552307,2.0234985,13.224091,0.039245605,-0.44673157,-0.17092896,15.005493,-19.447327,-48.539734,0,0.002346512,1.514422783,12.18876226,,2.146813
8.05667E+12,1.350357,1.8940277,13.647583,-0.05543518,-0.4693451,-0.25273132,15.005493,-19.447327,-48.539734,0,0.069747037,1.533403028,12.2617033,,2.146813
8.05668E+12,1.1789398,1.7369995,14.14241,-0.16119385,-0.46728516,-0.34458923,15.005493,-19.447327,-48.539734,0,0.125206675,1.543582852,12.35573863,,2.146813
8.05668E+12,0.9268646,1.580246,14.601227,-0.27085876,-0.43559265,-0.43385315,16.296387,-19.621277,-48.35968,0,0.165289571,1.545416009,12.46801305,,2.146813
8.05669E+12,0.5389252,1.2860107,15.092621,-0.37834167,-0.37841797,-0.51719666,16.296387,-19.621277,-48.35968,0,0.183971353,1.532445744,12.59924345,,2.146813
8.05669E+12,0.04725647,0.8787384,15.529999,-0.48143005,-0.30473328,-0.5988159,16.296387,-19.621277,-48.35968,0,0.177135609,1.499760377,12.74578123,,2.146813
8.0567E+12,-0.57829285,0.37423706,15.957596,-0.55610657,-0.2375946,-0.65974426,16.296387,-19.621277,-48.35968,0,0.139364186,1.443484211,12.90637197,,2.146813
8.0567E+12,-1.23732,-0.12162781,16.369034,-0.6004791,-0.18330383,-0.6995697,16.583252,-19.651794,-48.2666,0,0.070529976,1.36522861,13.07950507,,2.146813
8.05671E+12,-1.8148346,-0.5359192,16.723938,-0.6057434,-0.14820862,-0.7085571,16.583252,-19.651794,-48.2666,0,-0.023738252,1.270171219,13.26172671,,2.146813
8.05671E+12,-2.1936493,-0.93388367,16.959091,-0.57276917,-0.13294983,-0.6835785,16.583252,-19.651794,-48.2666,0,-0.132233805,1.159968475,13.44659493,,2.146813
8.05672E+12,-2.3482056,-1.1992188,16.920242,-0.5024719,-0.13298035,-0.6217804,16.583252,-19.651794,-48.2666,0,-0.243032395,1.042009111,13.62027728,,2.146813
8.05672E+12,-2.2640076,-1.2697449,16.559052,-0.39163208,-0.13807678,-0.52119446,15.3793335,-19.651794,-48.85254,0,-0.344081155,0.926421411,13.76721602,,2.146813
8.05673E+12,-1.9209595,-1.1711273,15.894226,-0.2611084,-0.14241028,-0.40222168,15.3793335,-19.651794,-48.85254,0,-0.422925072,0.821543975,13.87356652,,2.146813
8.05673E+12,-1.3869171,-0.9164429,14.874634,-0.11903381,-0.14276123,-0.27264404,15.3793335,-19.651794,-48.85254,0,-0.471124674,0.734644631,13.92361989,,2.146813
8.05674E+12,-0.82699585,-0.57902527,13.712875,0.020050049,-0.14057922,-0.14251709,15.3793335,-19.651794,-48.85254,0,-0.488918232,0.668961136,13.91308265,,2.146813
8.05674E+12,-0.26239014,-0.19932556,12.499466,0.13859558,-0.14202881,-0.03086853,14.906311,-17.530823,-47.75238,0,-0.477591828,0.625546801,13.84240181,,2.146813
8.05675E+12,0.20402527,0.110961914,11.316956,0.23709106,-0.15402222,0.06303406,14.906311,-17.530823,-47.75238,0,-0.443510973,0.599817557,13.71612952,,2.146813
8.05675E+12,0.6599121,0.3919983,10.349304,0.30387878,-0.17895508,0.13171387,14.906311,-17.530823,-47.75238,0,-0.388339819,0.589426594,13.54778825,,2.146813
8.05676E+12,1.1776123,0.6922455,9.678848,0.33421326,-0.21315002,0.17501831,14.906311,-17.530823,-47.75238,0,-0.310042213,0.594567539,13.35434124,,2.146813
8.05676E+12,1.5690613,0.91915894,9.191574,0.33276367,-0.2511139,0.19776917,14.866638,-17.248535,-47.595215,0,-0.216087038,0.61079711,13.14620287,,2.146813
8.05677E+12,1.8253937,1.0370789,8.708908,0.30732727,-0.27778625,0.19882202,14.866638,-17.248535,-47.595215,0,-0.114013001,0.632111199,12.92433813,,2.146813
8.05677E+12,2.0256042,1.1671448,8.343002,0.26914978,-0.29119873,0.18113708,14.866638,-17.248535,-47.595215,0,-0.007032141,0.658862879,12.69527132,,2.146813
8.05678E+12,2.1963806,1.3012543,8.216858,0.2136383,-0.29930115,0.14674377,14.866638,-17.248535,-47.595215,0,0.103138496,0.69098245,12.47135066,,2.146813
8.05678E+12,2.2516174,1.3642578,8.243866,0.15370178,-0.30851746,0.10209656,16.166687,-17.575073,-48.864746,0,0.210562442,0.724646218,12.25997642,,2.146813
8.05679E+12,2.1637573,1.3335571,8.242264,0.10031128,-0.31655884,0.050567627,16.166687,-17.575073,-48.864746,0,0.308222184,0.755091762,12.0590908,,2.146813
8.05679E+12,2.0714264,1.2643127,8.1970215,0.053848267,-0.31359863,-0.007659912,16.166687,-17.575073,-48.864746,0,0.396382395,0.780552809,11.86598734,,2.146813
8.0568E+12,1.9145966,1.228714,8.252396,0.012588501,-0.2934723,-0.06498718,16.166687,-17.575073,-48.864746,0,0.472293105,0.802960868,11.68530777,,2.146813
8.0568E+12,1.776001,1.1782074,8.398773,-0.024627686,-0.2639618,-0.11413574,14.930725,-19.2276,-47.657776,0,0.5374785,0.821723195,11.52098103,,2.146813
8.05681E+12,1.5311584,1.0822601,8.324921,-0.066101074,-0.21403503,-0.16731262,14.930725,-19.2276,-47.657776,0,0.587162495,0.83475004,11.36117803,,2.146813
8.05681E+12,1.1338348,0.8706665,8.174973,-0.10479736,-0.14738464,-0.21406555,14.930725,-19.2276,-47.657776,0,0.61449611,0.836545863,11.20186778,,2.146813
8.05682E+12,0.6870575,0.65008545,7.85968,-0.13595581,-0.073394775,-0.25186157,14.930725,-19.2276,-47.657776,0,0.61812418,0.827222842,11.03475839,,2.146813
8.05682E+12,0.37150574,0.48049927,7.5709686,-0.16329956,-4.27E-04,-0.27635193,14.866638,-19.308472,-47.595215,0,0.605793258,0.809886664,10.8615689,,2.146813
8.05683E+12,0.11642456,0.4217987,7.4423065,-0.18638611,0.06008911,-0.28442383,14.866638,-19.308472,-47.595215,0,0.581324823,0.790482266,10.69060578,,2.146813
8.05683E+12,-0.22358704,0.34046936,7.3897552,-0.20057678,0.09249878,-0.27833557,14.866638,-19.308472,-47.595215,0,0.54107923,0.76798162,10.52556325,,2.146813
8.05684E+12,-0.44380188,0.23962402,7.167282,-0.19944763,0.10095215,-0.26402283,14.866638,-19.308472,-47.595215,0,0.491835174,0.74156374,10.35764919,,2.146813
8.05684E+12,-0.58839417,0.16999817,7.07901,-0.17871094,0.080947876,-0.2358551,14.866638,-19.308472,-47.595215,0,0.437823707,0.712985462,10.19371723,,2.146813
8.05685E+12,-0.56666565,0.1823883,7.031494,-0.14259338,0.03994751,-0.19566345,14.866638,-19.308472,-47.595215,0,0.387599239,0.686455604,10.03560607,,2.146813
8.05685E+12,-0.5130615,0.19241333,6.942444,-0.09492493,-0.016921997,-0.14689636,14.866638,-19.308472,-47.595215,0,0.342566202,0.66175349,9.880947965,,2.146813
8.05686E+12,-0.34977722,0.30526733,6.762665,-0.043289185,-0.07165527,-0.09364319,14.703369,-19.815063,-50.401306,0,0.307949031,0.643929182,9.725033817,,2.146813
8.05686E+12,-0.035720825,0.4960022,6.5812683,0.0050354,-0.11392212,-0.040649414,14.703369,-19.815063,-50.401306,0,0.290765538,0.636532833,9.567845541,,2.146813
8.05687E+12,0.2947235,0.7297363,6.407669,0.05709839,-0.14888,0.010421753,14.703369,-19.815063,-50.401306,0,0.290963436,0.641193006,9.409836714,,2.146813
8.05687E+12,0.55496216,0.9118042,6.208847,0.10223389,-0.17393494,0.048339844,14.703369,-19.815063,-50.401306,0,0.304163373,0.654723566,9.249787228,,2.146813
8.05688E+12,0.6952057,1.0362549,5.973358,0.13867188,-0.1869049,0.069000244,15.209961,-19.308472,-47.93091,0,0.323715489,0.673800133,9.085965767,,2.146813
8.05688E+12,0.8017731,1.1355743,5.64032,0.1651001,-0.18499756,0.07527161,15.209961,-19.308472,-47.93091,0,0.34761837,0.696888841,8.913683478,,2.146813
8.05689E+12,0.8499298,1.1855774,5.320938,0.18005371,-0.17120361,0.07197571,15.209961,-19.308472,-47.93091,0,0.372733941,0.721323269,8.734046204,,2.146813
8.05689E+12,0.87968445,1.2458801,4.976227,0.18585205,-0.14744568,0.061416626,15.209961,-19.308472,-47.93091,0,0.398081467,0.747551111,8.546155244,,2.146813
8.0569E+12,0.91867065,1.2795715,4.8118134,0.18005371,-0.11668396,0.044326782,15.16571,-19.308472,-47.950745,0,0.424110926,0.77415213,8.359438152,,2.146813
8.0569E+12,0.9091339,1.29776,4.825348,0.1621399,-0.08685303,0.022506714,15.16571,-19.308472,-47.950745,0,0.448362074,0.800332523,8.182733644,,2.146813
8.05691E+12,0.9241791,1.3278809,4.928406,0.13198853,-0.051223755,-0.001174927,15.16571,-19.308472,-47.950745,0,0.472152926,0.826709942,8.020017262,,2.146813
8.05691E+12,0.9272766,1.3276062,5.0591125,0.09738159,-0.007324219,-0.02331543,15.16571,-19.308472,-47.950745,0,0.494909109,0.851754755,7.871972024,,2.146813
8.05692E+12,0.8265686,1.2999725,5.199402,0.06741333,0.04208374,-0.04472351,14.405823,-19.221497,-48.379517,0,0.511492084,0.874165642,7.738343523,,2.146813
8.05692E+12,0.58418274,1.2400513,5.3615723,0.045455933,0.095962524,-0.06877136,14.405823,-19.221497,-48.379517,0,0.515126617,0.892459925,7.619504962,,2.146813
8.05693E+12,0.33576965,1.1596527,5.4332275,0.03327942,0.15489197,-0.092559814,14.405823,-19.221497,-48.379517,0,0.506158768,0.905819564,7.510191089,,2.146813
8.05693E+12,0.09992981,1.0769653,5.364868,0.034622192,0.20756531,-0.108078,14.405823,-19.221497,-48.379517,0,0.48584732,0.914376851,7.402924934,,2.146813
8.05694E+12,-0.087402344,1.0006256,5.127838,0.04937744,0.25228882,-0.11405945,13.150024,-18.278503,-49.606323,0,0.457184837,0.918689288,7.289170587,,2.146813
8.05694E+12,-0.24049377,0.91922,4.856613,0.073532104,0.28468323,-0.11001587,13.150024,-18.278503,-49.606323,0,0.422300907,0.918715824,7.167542708,,2.146813
8.05695E+12,-0.31533813,0.87713623,4.6440735,0.10144043,0.30166626,-0.09719849,13.150024,-18.278503,-49.606323,0,0.385418955,0.916636844,7.041369248,,2.146813
8.05695E+12,-0.30352783,0.9162445,4.4923706,0.13040161,0.30506897,-0.076171875,13.150024,-18.278503,-49.606323,0,0.350971616,0.916617227,6.913919315,,2.146813
8.05696E+12,-0.2920227,0.9832001,4.359543,0.1541748,0.29588318,-0.048721313,13.218689,-18.164063,-49.35913,0,0.3188219,0.919946371,6.7862005,,2.146813
8.05696E+12,-0.25784302,1.0583038,4.399353,0.16784668,0.27671814,-0.021606445,13.218689,-18.164063,-49.35913,0,0.289988654,0.926864242,6.666858125,,2.146813
8.05697E+12,-0.14764404,1.1170349,4.58844,0.17350769,0.25382996,0.003875732,13.218689,-18.164063,-49.35913,0,0.268107019,0.936372775,6.562937218,,2.146813
8.05697E+12,-0.06542969,1.1541595,4.7646484,0.17533875,0.23088074,0.027572632,13.218689,-18.164063,-49.35913,0,0.251430184,0.947262111,6.473022777,,2.146813
8.05698E+12,-0.08317566,1.1643829,4.9764404,0.1777649,0.20974731,0.045944214,13.902283,-17.710876,-47.891235,0,0.234699892,0.958118151,6.398193659,,2.146813
8.05698E+12,-0.16368103,1.1388245,5.028824,0.18336487,0.19322205,0.06021118,13.902283,-17.710876,-47.891235,0,0.214780846,0.967153468,6.329725176,,2.146813
8.05699E+12,-0.23500061,1.1523285,4.932312,0.19406128,0.17817688,0.07254028,13.902283,-17.710876,-47.891235,0,0.192291773,0.97641222,6.259854517,,2.146813
8.05699E+12,-0.22720337,1.2360077,4.7676697,0.21022034,0.16531372,0.08622742,13.902283,-17.710876,-47.891235,0,0.171317016,0.989391994,6.185245276,,2.146813
8.057E+12,-0.19796753,1.3572083,4.6091766,0.22427368,0.15333557,0.101242065,15.209961,-19.308472,-48.60077,0,0.152852788,1.007782809,6.106441842,,2.146813
8.057E+12,-0.10348511,1.4972992,4.5942383,0.22610474,0.13522339,0.11567688,15.209961,-19.308472,-48.60077,0,0.140035893,1.032258629,6.030831665,,2.146813
8.05701E+12,0.08189392,1.6722565,4.9752655,0.2158966,0.11413574,0.12742615,15.209961,-19.308472,-48.60077,0,0.137128795,1.064258522,5.978053357,,2.146813
8.05701E+12,0.1894989,1.7325745,5.5512238,0.19396973,0.083724976,0.13183594,15.209961,-19.308472,-48.60077,0,0.1397473,1.097674321,5.956711879,,2.146813
8.05702E+12,0.11160278,1.7135773,6.1026,0.16896057,0.051971436,0.13121033,14.99939,-19.239807,-48.60077,0,0.138340074,1.12846947,5.964006285,,2.146813
8.05702E+12,-0.05050659,1.664566,6.418396,0.15252686,0.029922485,0.12527466,14.99939,-19.239807,-48.60077,0,0.128897741,1.155274297,5.986725771,,2.146813
8.05703E+12,-0.18013,1.6520538,6.6838226,0.15013123,0.020080566,0.11869812,14.99939,-19.239807,-48.60077,0,0.113446354,1.180113272,6.021580612,,2.146813
8.05703E+12,-0.33680725,1.5716553,6.8506317,0.15618896,0.020507813,0.119277954,14.99939,-19.239807,-48.60077,0,0.090933674,1.199690373,6.063033167,,2.146813
8.05704E+12,-0.4497223,1.5445251,6.8854218,0.16325378,0.026382446,0.12709045,14.523315,-19.003296,-48.487854,0,0.063900875,1.216932109,6.104152598,,2.146813
8.05704E+12,-0.49243164,1.5103607,7.0272827,0.16822815,0.03765869,0.1449585,14.523315,-19.003296,-48.487854,0,0.036084249,1.231603539,6.150309103,,2.146813
8.05705E+12,-0.28953552,1.4856262,7.182541,0.16239929,0.05206299,0.17027283,14.523315,-19.003296,-48.487854,0,0.019803261,1.244304672,6.201920698,,2.146813
8.05705E+12,-0.07299805,1.6413116,7.323868,0.14207458,0.073898315,0.20080566,15.725708,-19.136047,-48.098755,0,0.015163195,1.264155018,6.258018063,,2.146813
8.05706E+12,0.20896912,1.7397766,7.5085144,0.10920715,0.09420776,0.2288208,15.725708,-19.136047,-48.098755,0,0.024853491,1.287936098,6.32054288,,2.146813
8.05706E+12,0.36128235,1.8684387,7.686035,0.073028564,0.108428955,0.25154114,15.725708,-19.136047,-48.098755,0,0.041674934,1.316961228,6.388817486,,2.146813
8.05707E+12,0.5690613,1.9270782,7.8970795,0.03605652,0.11099243,0.2601776,15.725708,-19.136047,-48.098755,0,0.068044253,1.347467076,6.464230587,,2.146813
8.05707E+12,0.7588196,1.9726257,8.2365265,-0.007553101,0.101135254,0.25590515,15.6311035,-19.88678,-47.82257,0,0.10258302,1.378725007,6.552845382,,2.146813
8.05708E+12,0.8328552,1.9937134,8.484863,-0.04989624,0.080703735,0.24606323,15.6311035,-19.88678,-47.82257,0,0.139096629,1.409474427,6.649446263,,2.146813
8.05708E+12,0.7417755,1.9147491,8.785919,-0.0904541,0.056106567,0.22958374,15.6311035,-19.88678,-47.82257,0,0.169230573,1.434738161,6.7562699,,2.146813
8.05709E+12,0.6449127,1.7872925,9.245911,-0.13218689,0.029281616,0.20753479,15.6311035,-19.88678,-47.82257,0,0.193014679,1.452365878,6.880751955,,2.146813
8.05709E+12,0.5490875,1.6695709,9.932816,-0.17835999,0.004608154,0.18525696,15.231323,-21.131897,-47.33734,0,0.21081832,1.463226129,7.033355157,,2.146813
8.0571E+12,0.55818176,1.6125336,10.7202,-0.2278595,-0.01335144,0.17210388,15.231323,-21.131897,-47.33734,0,0.228186492,1.470691502,7.2176974,,2.146813
8.0571E+12,0.6326294,1.6522217,11.501434,-0.27687073,-0.027191162,0.17074585,15.231323,-21.131897,-47.33734,0,0.248408637,1.479768012,7.43188423,,2.146813
8.05711E+12,0.7888489,1.7166901,12.193649,-0.30812073,-0.03277588,0.17712402,15.231323,-21.131897,-47.33734,0,0.275430651,1.491614117,7.669972468,,2.146813
8.05711E+12,0.94540405,1.7440643,12.870102,-0.3191986,-0.03640747,0.18661499,14.866638,-19.308472,-47.93091,0,0.30892932,1.504236626,7.929978945,,2.146813
8.05712E+12,1.0098114,1.7254944,13.4743805,-0.3098297,-0.041900635,0.19203186,14.866638,-19.308472,-47.93091,0,0.343973424,1.515299515,8.207199022,,2.146813
8.05712E+12,1.0471344,1.6683044,13.963242,-0.28224182,-0.049728394,0.19447327,14.866638,-19.308472,-47.93091,0,0.379131473,1.522949759,8.495001171,,2.146813
8.05713E+12,1.0883484,1.671341,14.258759,-0.24220276,-0.053771973,0.19667053,14.866638,-19.308472,-47.93091,0,0.41459232,1.530369321,8.783189063,,2.146813
8.05713E+12,1.0909271,1.6775665,14.457855,-0.19581604,-0.044174194,0.20126343,14.74762,-19.544983,-48.275757,0,0.448409059,1.53772918,9.06692236,,2.146813
8.05714E+12,1.0491943,1.694809,14.738556,-0.15866089,-0.023040771,0.20513916,14.74762,-19.544983,-48.275757,0,0.478448321,1.545583171,9.350504042,,2.146813
8.05714E+12,1.0235443,1.7620087,14.923737,-0.13044739,0.010375977,0.20994568,14.74762,-19.544983,-48.275757,0,0.50570312,1.556404447,9.62916569,,2.146813
8.05715E+12,1.1878815,1.8858948,15.034256,-0.11325073,0.058303833,0.2159729,14.74762,-19.544983,-48.275757,0,0.539812039,1.572878965,9.899420205,,2.146813
8.05715E+12,1.4398041,2.0736847,15.09758,-0.107910156,0.11665344,0.21969604,13.964844,-19.810486,-48.391724,0,0.584811642,1.597919252,10.15932819,,2.146813
8.05716E+12,1.4912109,2.2039795,14.956238,-0.11164856,0.18743896,0.21650696,13.964844,-19.810486,-48.391724,0,0.630131605,1.628222264,10.39917369,,2.146813
8.05716E+12,1.3514862,2.1573334,14.826935,-0.12495422,0.27346802,0.2013855,13.964844,-19.810486,-48.391724,0,0.666199334,1.654677821,10.62056175,,2.146813
8.05717E+12,1.1522675,2.0974274,14.684723,-0.14704895,0.36276245,0.17538452,13.964844,-19.810486,-48.391724,0,0.690502743,1.6768153,10.82376981,,2.146813
8.05717E+12,0.970932,2.111374,14.416702,-0.17453003,0.44566345,0.14941406,12.979126,-19.47937,-47.428894,0,0.704524206,1.698543235,11.00341642,,2.146813
8.05718E+12,0.86026,2.1661682,14.083359,-0.19953918,0.5161743,0.13122559,12.979126,-19.47937,-47.428894,0,0.712310995,1.721924483,11.15741355,,2.146813
8.05718E+12,0.7024689,2.2217255,13.6410675,-0.21888733,0.5684662,0.117889404,12.979126,-19.47937,-47.428894,0,0.711818891,1.746914534,11.28159625,,2.146813
8.05719E+12,0.4505005,2.253952,13.323013,-0.23855591,0.5986023,0.10449219,12.979126,-19.47937,-47.428894,0,0.698752971,1.772266407,11.38366709,,2.146813
8.05719E+12,0.12586975,2.165863,13.191299,-0.2579193,0.5957947,0.09184265,14.044189,-19.551086,-47.636414,0,0.67010881,1.791946237,11.47404868,,2.146813
8.0572E+12,-0.13645935,1.9977112,13.190491,-0.27571106,0.55940247,0.080596924,14.044189,-19.551086,-47.636414,0,0.629780402,1.802234485,11.5598708,,2.146813
8.0572E+12,-0.27397156,1.8855591,13.333084,-0.29644775,0.4973755,0.07606506,14.044189,-19.551086,-47.636414,0,0.584592804,1.806400716,11.64853146,,2.146813
8.05721E+12,-0.30973816,1.8746948,13.606659,-0.31419373,0.41540527,0.08052063,14.044189,-19.551086,-47.636414,0,0.539876256,1.80981542,11.74643784,,2.146813
8.05721E+12,-0.30255127,1.8739319,14.116028,-0.32647705,0.3236847,0.08985901,15.257263,-19.50531,-48.217773,0,0.497754879,1.813021244,11.86491734,,2.146813
8.05722E+12,-0.2796631,1.7805176,14.639587,-0.33468628,0.21998596,0.100372314,15.257263,-19.50531,-48.217773,0,0.45888398,1.811396062,12.00365083,,2.146813
8.05722E+12,-0.21800232,1.6848602,15.172226,-0.33683777,0.12799072,0.10946655,15.257263,-19.50531,-48.217773,0,0.425039665,1.805069269,12.16207958,,2.146813
8.05723E+12,-0.1627655,1.5566864,15.672165,-0.3314209,0.0513916,0.11543274,15.257263,-19.50531,-48.217773,0,0.395649407,1.792650125,12.33758386,,2.146813
8.05724E+12,0.014755249,1.4638977,16.197754,-0.31729126,-0.012191772,0.12088013,14.866638,-19.308472,-48.60077,0,0.376604699,1.776212504,12.53059236,,2.146813
8.05724E+12,0.11628723,1.383728,16.53769,-0.29612732,-0.06187439,0.12145996,14.866638,-19.308472,-48.60077,0,0.363588826,1.756588279,12.73094724,,2.146813
8.05725E+12,0.23150635,1.2634735,16.73146,-0.26631165,-0.09112549,0.1186676,14.866638,-19.308472,-48.60077,0,0.356984702,1.73193254,12.93097288,,2.146813
8.05725E+12,0.39701843,1.1070099,16.866287,-0.22737122,-0.09991455,0.10903931,14.866638,-19.308472,-48.60077,0,0.358986388,1.700686408,13.12773859,,2.146813
8.05726E+12,0.542099,0.9980011,16.816284,-0.18922424,-0.080215454,0.09397888,15.696716,-19.308472,-48.60077,0,0.368142019,1.665552142,13.31216586,,2.146813
8.05726E+12,0.47329712,0.88087463,16.609833,-0.15715027,-0.035232544,0.073150635,15.696716,-19.308472,-48.60077,0,0.373399774,1.626318267,13.47704922,,2.146813
8.05727E+12,0.29393005,0.7336731,16.225433,-0.1235199,0.032730103,0.052383423,15.696716,-19.308472,-48.60077,0,0.369426288,1.581686009,13.61446841,,2.146813
8.05727E+12,0.05015564,0.48764038,15.647568,-0.1235199,0.032730103,0.052383423,15.696716,-19.308472,-48.60077,0,0.353462755,1.526983727,13.71612338,,2.146813
8.05728E+12,-0.28248596,0.22135925,14.949768,-0.06782532,0.19787598,0.006103516,16.156006,-18.539429,-48.016357,0,0.32166532,1.461702503,13.77780562,,2.146813
8.05728E+12,-0.51356506,0.076538086,14.381348,-0.047973633,0.28125,-0.007675171,16.156006,-18.539429,-48.016357,0,0.279903801,1.392444282,13.80798273,,2.146813
8.05729E+12,-0.66722107,-0.055526733,13.806046,-0.030593872,0.3459015,-0.005508423,16.156006,-18.539429,-48.016357,0,0.232547557,1.320045732,13.8078859,,2.146813
8.05729E+12,-0.7228241,-0.07814026,13.201599,-0.014190674,0.3922577,0.005599976,15.725708,-17.762756,-47.428894,0,0.184778974,1.250136432,13.77757155,,2.146813
8.0573E+12,-0.85990906,-0.10983276,12.630707,0.002685547,0.41862488,0.024108887,15.725708,-17.762756,-47.428894,0,0.132544573,1.182137972,13.72022833,,2.146813
8.0573E+12,-0.983551,-0.1124115,11.95108,0.023086548,0.42617798,0.0413208,15.725708,-17.762756,-47.428894,0,0.076739794,1.117410499,13.63177091,,2.146813
8.05731E+12,-1.1221008,-0.13165283,11.256638,0.047042847,0.41607666,0.053115845,15.725708,-17.762756,-47.428894,0,0.016797764,1.054957332,13.51301426,,2.146813
8.05731E+12,-1.2018738,-0.1729126,10.582565,0.07398987,0.38386536,0.06820679,15.438843,-17.478943,-47.706604,0,-0.044135814,0.993563836,13.3664918,,2.146813
8.05732E+12,-1.2837677,-0.2424469,9.978165,0.0987854,0.33491516,0.081832886,15.438843,-17.478943,-47.706604,0,-0.106117408,0.931763299,13.19707546,,2.146813
8.05732E+12,-1.3253784,-0.24075317,9.511063,0.11778259,0.26817322,0.0945282,15.438843,-17.478943,-47.706604,0,-0.167080458,0.873137476,13.01277484,,2.146813
8.05733E+12,-1.3086395,-0.22007751,9.118637,0.1299591,0.18562317,0.108688354,15.438843,-17.478943,-47.706604,0,-0.22415841,0.818476726,12.81806795,,2.146813
8.05733E+12,-1.2330017,-0.17338562,8.807968,0.13478088,0.09971619,0.12223816,16.569519,-18.026733,-47.740173,0,-0.274600574,0.768883609,12.61756295,,2.146813
8.05734E+12,-1.162323,-0.17353821,8.528809,0.1321106,0.020736694,0.13430786,16.569519,-18.026733,-47.740173,0,-0.318986696,0.721762518,12.41312525,,2.146813
8.05734E+12,-1.0466309,-0.14093018,8.405197,0.1219635,-0.05580139,0.14459229,16.569519,-18.026733,-47.740173,0,-0.355368906,0.678627883,12.21272884,,2.146813
8.05735E+12,-0.91867065,-0.056793213,8.484024,0.10404968,-0.12107849,0.15097046,16.569519,-18.026733,-47.740173,0,-0.383533993,0.641856828,12.0262936,,2.146813
8.05735E+12,-0.83436584,-0.03944397,8.565308,0.08308411,-0.17825317,0.15168762,17.61322,-18.621826,-47.595215,0,-0.406075586,0.607791788,11.85324432,,2.146813
8.05736E+12,-0.7680054,-0.07675171,8.482529,0.06530762,-0.22195435,0.1448822,17.61322,-18.621826,-47.595215,0,-0.424172076,0.573564613,11.68470855,,2.146813
8.05736E+12,-0.73036194,-0.09037781,8.299957,0.04862976,-0.24572754,0.13395691,17.61322,-18.621826,-47.595215,0,-0.439481569,0.540367492,11.51547097,,2.146813
8.05737E+12,-0.7025604,-0.11418152,8.204773,0.025238037,-0.2504425,0.12046814,17.61322,-18.621826,-47.595215,0,-0.452635511,0.507640042,11.34993607,,2.146813
8.05737E+12,-0.6838684,-0.13647461,8.155823,-0.00769043,-0.23750305,0.10623169,17.506409,-18.728638,-47.070313,0,-0.464197155,0.475434309,11.19023042,,2.146813
8.05738E+12,-0.6928711,-0.1326294,8.14328,-0.045059204,-0.2160492,0.09251404,17.506409,-18.728638,-47.070313,0,-0.475630853,0.445031124,11.0378829,,2.146813
8.05738E+12,-0.74523926,-0.17666626,8.092453,-0.08262634,-0.1912384,0.07829285,17.506409,-18.728638,-47.070313,0,-0.489111273,0.413946254,10.8906114,,2.146813
8.05739E+12,-0.79060364,-0.27796936,8.032288,-0.115249634,-0.16461182,0.06295776,17.506409,-18.728638,-47.070313,0,-0.504185891,0.379350474,10.74769523,,2.146813
8.05739E+12,-0.85847473,-0.3288269,8.0252075,-0.14089966,-0.13546753,0.051498413,16.78772,-17.921448,-47.82257,0,-0.521900333,0.343941605,10.61157085,,2.146813
8.0574E+12,-0.9312439,-0.3430786,7.9378357,-0.15959167,-0.10395813,0.046463013,16.78772,-17.921448,-47.82257,0,-0.542367512,0.309590595,10.47788409,,2.146813
8.0574E+12,-0.9660187,-0.37322998,7.902176,-0.16929626,-0.07633972,0.050598145,16.78772,-17.921448,-47.82257,0,-0.563550071,0.275449566,10.34909869,,2.146813
8.05741E+12,-1.0021362,-0.40385437,7.7460785,-0.16481018,-0.054840088,0.06047058,16.78772,-17.921448,-47.82257,0,-0.585479377,0.241484369,10.21894768,,2.146813
8.05741E+12,-1.0225983,-0.41563416,7.506012,-0.14894104,-0.039016724,0.074401855,16.412354,-17.419434,-48.43445,0,-0.607335324,0.208628443,10.08330089,,2.146813
8.05742E+12,-1.0591583,-0.380188,7.1854095,-0.12332153,-0.02558899,0.09440613,16.412354,-17.419434,-48.43445,0,-0.629926472,0.179187621,9.938406323,,2.146813
8.05742E+12,-0.99705505,-0.31910706,6.857773,-0.09718323,-0.011672974,0.11807251,16.412354,-17.419434,-48.43445,0,-0.648282901,0.154272887,9.784374657,,2.146813
8.05743E+12,-0.8740845,-0.19615173,6.5915527,-0.07043457,0.006652832,0.15020752,16.412354,-17.419434,-48.43445,0,-0.659572981,0.136751656,9.624733559,,2.146813
8.05743E+12,-0.71984863,-0.07299805,6.292923,-0.045776367,0.020370483,0.18521118,16.412354,-17.897034,-48.20099,0,-0.662586764,0.12626417,9.458143031,,2.146813
8.05744E+12,-0.52441406,0.044509888,5.9669037,-0.020843506,0.026229858,0.21754456,16.412354,-17.897034,-48.20099,0,-0.655678128,0.122176456,9.283581065,,2.146813
8.05744E+12,-0.36779785,0.15744019,5.612564,0.008880615,0.025146484,0.2456665,16.412354,-17.897034,-48.20099,0,-0.641284115,0.123939643,9.100030211,,2.146813
8.05745E+12,-0.20495605,0.27815247,5.2279053,0.043273926,0.016418457,0.26835632,16.412354,-17.897034,-48.20099,0,-0.619467711,0.131650284,8.906423966,,2.146813
8.05745E+12,-0.060836792,0.4364624,4.727295,0.07421875,0.001876831,0.2852478,15.927124,-18.10608,-47.860718,0,-0.591536165,0.14689089,8.697467518,,2.146813
8.05746E+12,0.12321472,0.58888245,4.544388,0.101989746,-0.019317627,0.2978363,15.927124,-18.10608,-47.860718,0,-0.555798621,0.168990468,8.489813542,,2.146813
8.05746E+12,0.31448364,0.7085266,4.4338837,0.114212036,-0.039245605,0.3007965,15.927124,-18.10608,-47.860718,0,-0.512284508,0.195967275,8.28701705,,2.146813
8.05747E+12,0.43504333,0.8509674,4.3390045,0.115859985,-0.05697632,0.29466248,15.927124,-18.10608,-47.860718,0,-0.464918116,0.228717281,8.089616422,,2.146813
8.05747E+12,0.49803162,0.9645233,4.4171906,0.11375427,-0.0690918,0.28282166,15.725708,-18.10608,-47.76306,0,-0.416770629,0.265507582,7.905995131,,2.146813
8.05748E+12,0.51834106,1.0096741,4.690323,0.11375427,-0.0690918,0.28282166,15.725708,-18.10608,-47.76306,0,-0.370015045,0.302715908,7.745211524,,2.146813
8.05748E+12,0.4560547,1.0406494,4.9610596,0.11894226,-0.091156006,0.24717712,15.725708,-18.10608,-47.76306,0,-0.328711558,0.339612582,7.606003928,,2.146813
8.05749E+12,0.3171692,0.97042847,4.9263916,0.13096619,-0.09700012,0.22148132,15.461731,-18.894958,-46.992493,0,-0.29641752,0.371153377,7.472023312,,2.146813
8.05749E+12,0.15568542,0.8639984,4.709778,0.15029907,-0.079193115,0.19804382,15.461731,-18.894958,-46.992493,0,-0.273812373,0.395795628,7.333911046,,2.146813
8.0575E+12,0.029037476,0.8538971,4.562195,0.16442871,-0.045074463,0.18270874,15.461731,-18.894958,-46.992493,0,-0.25866988,0.418700702,7.195325244,,2.146813
8.0575E+12,0.030075073,0.898407,4.47316,0.16696167,-1.53E-04,0.1767273,15.461731,-18.894958,-46.992493,0,-0.244232633,0.442686017,7.059216982,,2.146813
8.05751E+12,0.013366699,0.8971863,4.511444,0.15629578,0.04626465,0.17549133,15.115356,-19.136047,-46.237183,0,-0.231352666,0.465411031,6.931828333,,2.146813
8.05751E+12,-0.08106995,0.9478302,4.5133667,0.1408844,0.089035034,0.17938232,15.115356,-19.136047,-46.237183,0,-0.22383853,0.489531989,6.810905251,,2.146813
8.05752E+12,-0.13330078,1.0200043,4.4597015,0.1254425,0.12901306,0.1819458,15.115356,-19.136047,-46.237183,0,-0.219311643,0.516055605,6.693345063,,2.146813
8.05752E+12,-0.12269592,1.121109,4.4024963,0.1159668,0.15463257,0.18522644,15.115356,-19.136047,-46.237183,0,-0.214480857,0.546308274,6.578802625,,2.146813
8.05753E+12,-0.029022217,1.2195435,4.3572693,0.1124115,0.1620636,0.18876648,15.0390625,-19.136047,-46.087646,0,-0.205207925,0.579970036,6.467725959,,2.146813
8.05753E+12,0.051956177,1.2941742,4.385788,0.112197876,0.15057373,0.19137573,15.0390625,-19.136047,-46.087646,0,-0.19234972,0.615680244,6.363629061,,2.146813
8.05754E+12,0.19284058,1.2949829,4.432007,0.11550903,0.124176025,0.1877594,15.0390625,-19.136047,-46.087646,0,-0.173090205,0.649645377,6.267047958,,2.146813
8.05754E+12,0.26124573,1.3054504,4.474121,0.12211609,0.09140015,0.17927551,15.0390625,-19.136047,-46.087646,0,-0.151373408,0.682435628,6.17740161,,2.146813
8.05755E+12,0.25390625,1.3493347,4.5785065,0.12908936,0.04725647,0.16549683,14.607239,-18.42041,-47.90802,0,-0.131109425,0.715780582,6.097456855,,2.146813
8.05755E+12,0.2004242,1.3251038,4.7326355,0.13111877,0.003555298,0.14781189,14.607239,-18.42041,-47.90802,0,-0.114532744,0.746246742,6.029215787,,2.146813
8.05756E+12,0.12852478,1.26268,4.9952545,0.12432861,-0.03303528,0.12550354,14.607239,-18.42041,-47.90802,0,-0.102379868,0.772068405,5.977517723,,2.146813
8.05756E+12,0.0922699,1.2104492,5.384613,0.104766846,-0.05482483,0.10385132,14.607239,-18.42041,-47.90802,0,-0.092647379,0.793987445,5.947872486,,2.146813
8.05757E+12,0.05810547,1.2009277,5.927002,0.074798584,-0.06037903,0.08609009,14.378357,-19.00177,-46.99402,0,-0.085109737,0.814334458,5.946828962,,2.146813
8.05757E+12,0.012802124,1.2300873,6.5699005,0.040603638,-0.051818848,0.069488525,14.378357,-19.00177,-46.99402,0,-0.080214144,0.8351221,5.977982539,,2.146813
8.05758E+12,-0.04083252,1.2301788,7.104782,0.011535645,-0.030044556,0.051757813,14.378357,-19.00177,-46.99402,0,-0.078245062,0.854874935,6.034322512,,2.146813
8.05758E+12,-0.16363525,1.1536713,7.5086365,-0.009811401,0.002212524,0.034240723,14.378357,-19.00177,-46.99402,0,-0.082514572,0.869814753,6.108038211,,2.146813
8.05759E+12,-0.36450195,1.0751343,7.8210144,-0.023162842,0.044937134,0.01739502,14.352417,-19.136047,-46.757507,0,-0.096613941,0.880080731,6.193687021,,2.146813
8.05759E+12,-0.5590668,1.0549011,8.009567,-0.023223877,0.09010315,0.006835938,14.352417,-19.136047,-46.757507,0,-0.119736584,0.888821749,6.28448102,,2.146813
8.0576E+12,-0.66664124,1.0969238,8.097336,-0.013366699,0.127594,0.003967285,14.352417,-19.136047,-46.757507,0,-0.147081817,0.899226852,6.375123769,,2.146813
8.0576E+12,-0.66807556,1.1551056,8.203293,0.005844116,0.15193176,0.006408691,14.352417,-19.136047,-46.757507,0,-0.173131504,0.912020789,6.46653223,,2.146813
8.05761E+12,-0.60331726,1.21344,8.299988,0.028884888,0.15835571,0.01159668,15.751648,-20.22705,-47.51587,0,-0.194640792,0.92709175,6.558205019,,2.146813
8.05761E+12,-0.4710083,1.2967072,8.513763,0.043807983,0.15486145,0.018463135,15.751648,-20.22705,-47.51587,0,-0.208459167,0.945572522,6.655982918,,2.146813
8.05762E+12,-0.36486816,1.4182587,8.843231,0.046081543,0.1486969,0.023223877,15.751648,-20.22705,-47.51587,0,-0.216279617,0.969206831,6.765345322,,2.146813
8.05762E+12,-0.34342957,1.5386353,9.183044,0.034988403,0.14808655,0.020553589,15.751648,-20.22705,-47.51587,0,-0.222637114,0.997678254,6.886230256,,2.146813
8.05763E+12,-0.3639679,1.5640411,9.538956,0.009658814,0.15661621,0.008895874,15.582275,-18.771362,-45.759583,0,-0.229703654,1.025996397,7.018866543,,2.146813
8.05763E+12,-0.3730011,1.5150757,10.056351,-0.03692627,0.18138123,-0.013061523,15.582275,-18.771362,-45.759583,0,-0.236868526,1.050450362,7.170740766,,2.146813
8.05764E+12,-0.38301086,1.3845215,10.767059,-0.09489441,0.21466064,-0.039138794,15.582275,-18.771362,-45.759583,0,-0.244175643,1.067153919,7.350556678,,2.146813
8.05764E+12,-0.4998932,1.3017273,11.389084,-0.1525116,0.24447632,-0.06211853,15.582275,-18.771362,-45.759583,0,-0.25696152,1.078882588,7.552483044,,2.146813
8.05765E+12,-0.65364075,1.2059937,12.007172,-0.19442749,0.2649994,-0.08479309,15.553284,-18.621826,-45.585632,0,-0.276795482,1.085238143,7.775217492,,2.146813
8.05765E+12,-0.844635,1.0081482,12.459412,-0.21388245,0.27105713,-0.102386475,15.553284,-18.621826,-45.585632,0,-0.305187458,1.081383646,8.009427217,,2.146813
8.05766E+12,-1.0381165,0.83813477,12.797089,-0.2068634,0.2586975,-0.11097717,15.553284,-18.621826,-45.585632,0,-0.34183391,1.069221202,8.248810306,,2.146813
8.05766E+12,-1.03302,0.78393555,12.931564,-0.1697998,0.21798706,-0.11151123,15.553284,-18.621826,-45.585632,0,-0.376393214,1.05495692,8.482947991,,2.146813
8.05767E+12,-0.9702606,0.7603302,13.0147705,-0.113342285,0.15138245,-0.10064697,15.216064,-21.644592,-47.87903,0,-0.406086584,1.040225584,8.709539116,,2.146813
8.05767E+12,-0.8637848,0.76582336,13.005981,-0.049316406,0.06338501,-0.081604004,15.216064,-21.644592,-47.87903,0,-0.428971495,1.026505473,8.924361211,,2.146813
8.05768E+12,-0.7049713,0.81051636,12.923599,0.016937256,-0.0340271,-0.06303406,15.216064,-21.644592,-47.87903,0,-0.442771485,1.015706017,9.1243231,,2.146813
8.05768E+12,-0.5640106,0.7982178,12.961487,0.07426453,-0.13252258,-0.047576904,15.216064,-21.644592,-47.87903,0,-0.448833441,1.004831606,9.316181295,,2.146813
8.05769E+12,-0.52227783,0.84236145,13.026306,0.11462402,-0.21099854,-0.03845215,15.042114,-20.870972,-46.125793,0,-0.45250566,0.996708098,9.50168753,,2.146813
8.05769E+12,-0.46891785,0.8497772,13.010468,0.13604736,-0.27824402,-0.034484863,15.042114,-20.870972,-46.125793,0,-0.45332627,0.989361553,9.677126554,,2.146813
8.0577E+12,-0.37182617,0.9552002,13.0946045,0.12940979,-0.309906,-0.03453064,15.042114,-20.870972,-46.125793,0,-0.449251265,0.987653486,9.848000451,,2.146813
8.0577E+12,-0.25134277,1.0586548,13.55658,0.09849548,-0.31762695,-0.035949707,15.042114,-20.870972,-46.125793,0,-0.43935584,0.991203551,10.03342943,,2.146813
8.05771E+12,-0.16400146,1.0764008,14.209473,0.050567627,-0.31163025,-0.041625977,15.042114,-20.870972,-46.125793,0,-0.425588121,0.995463414,10.24223161,,2.146813
8.05771E+12,-0.22473145,1.0608673,14.834335,0.007446289,-0.2995453,-0.049423218,15.042114,-20.870972,-46.125793,0,-0.415545287,0.998733608,10.47183678,,2.146813
8.05772E+12,-0.24606323,1.0251923,14.93248,-0.013793945,-0.27752686,-0.058288574,15.042114,-20.870972,-46.125793,0,-0.407071184,1.000056543,10.69486894,,2.146813
8.05772E+12,-0.107940674,1.0236816,14.729523,-1.53E-04,-0.24786377,-0.061706543,15.063477,-20.802307,-46.087646,0,-0.392114659,1.001237796,10.89660164,,2.146813
8.05773E+12,0.05281067,1.0492554,14.479309,0.036727905,-0.22645569,-0.056777954,15.063477,-20.802307,-46.087646,0,-0.369868392,1.003638676,11.07573701,,2.146813
8.05773E+12,0.29067993,1.1491394,14.172638,0.08062744,-0.21846008,-0.044296265,15.063477,-20.802307,-46.087646,0,-0.336840976,1.010913712,11.23058206,,2.146813
8.05774E+12,0.4784851,1.2125244,13.885605,0.11715698,-0.21687317,-0.030639648,15.063477,-20.802307,-46.087646,0,-0.296074673,1.020994246,11.36333321,,2.146813
